Timestamp,Sensor,AccX,AccY,AccZ,GyrX,GyrY,GyrZ,MagX,MagY,MagZ,Temp
2026/04/13 14:47:10.00,IMU,-39.06,0.98,-979.98,-1.98,-0.56,0.74,10.05,43.95,-36.75,28.2
2026/04/13 14:47:10.10,IMU,-26.86,3.42,-970.21,0.64,-2.01,2.13,9.60,44.40,-36.45,27.9
2026/04/13 14:47:10.20,IMU,-33.69,2.93,-985.84,-0.98,0.97,1.24,10.20,44.55,-37.20,28.2
2026/04/13 14:47:10.30,IMU,-38.57,-8.30,-981.93,0.18,0.77,-0.41,10.05,43.65,-35.70,28.0
2026/04/13 14:47:10.40,IMU,-33.69,-3.42,-980.47,-0.19,-0.62,-3.53,8.70,44.85,-37.20,28.2
2026/04/13 14:47:10.50,IMU,-32.71,2.93,-979.49,-1.98,-1.03,0.00,10.05,44.40,-36.45,28.0
2026/04/13 14:47:10.61,IMU,-35.64,9.28,-978.03,-0.24,0.44,1.65,9.60,42.90,-37.50,28.2
2026/04/13 14:47:10.71,IMU,-31.25,7.32,-983.89,-0.24,-0.29,-1.08,9.30,44.40,-37.05,28.0
2026/04/13 14:47:10.81,IMU,-33.69,-10.74,-975.59,-1.93,1.90,-0.64,9.45,44.25,-36.60,28.2
2026/04/13 14:47:10.91,IMU,-29.79,-5.86,-979.49,-0.71,-1.52,0.18,9.45,44.25,-36.60,28.2
2026/04/13 14:47:11.01,IMU,-21.97,-3.42,-988.77,-0.87,-2.21,3.72,9.15,44.85,-36.15,28.2
2026/04/13 14:47:11.11,IMU,-22.95,-13.18,-975.10,0.27,-1.63,-0.46,10.50,44.25,-37.95,28.4
2026/04/13 14:47:11.21,IMU,-37.60,-2.44,-969.24,-1.66,-1.42,-0.49,10.20,44.25,-38.25,28.2
2026/04/13 14:47:11.31,IMU,-38.09,-7.32,-968.26,-0.98,-0.40,-0.84,9.45,44.25,-37.65,28.2
2026/04/13 14:47:11.41,IMU,-27.34,-1.95,-982.91,-0.66,-4.13,1.49,8.70,43.05,-35.10,28.3
2026/04/13 14:47:11.51,IMU,-29.79,9.28,-987.79,-0.27,-2.76,0.04,9.15,44.85,-36.90,28.2
2026/04/13 14:47:11.61,IMU,-33.20,10.25,-979.98,-2.03,-0.17,1.18,10.80,42.15,-37.05,28.2
2026/04/13 14:47:11.71,IMU,-36.62,-13.67,-972.17,0.34,-0.84,-0.67,9.15,44.55,-36.15,28.2
2026/04/13 14:47:11.81,IMU,-40.04,3.91,-979.98,-0.15,0.36,0.56,10.95,46.05,-36.15,28.0
2026/04/13 14:47:11.92,IMU,-40.53,-4.39,-974.61,-2.99,-2.19,-0.17,11.25,43.50,-37.65,28.1
2026/04/13 14:47:12.02,IMU,-34.18,-10.74,-978.52,0.40,-0.61,-0.43,10.95,44.55,-35.85,28.2
2026/04/13 14:47:12.12,IMU,-41.02,-2.93,-981.45,-3.73,-2.27,0.73,11.70,43.80,-36.15,28.0
2026/04/13 14:47:12.22,IMU,-42.97,3.91,-978.52,-1.21,-2.23,-2.38,10.80,43.20,-36.00,28.4
2026/04/13 14:47:12.32,IMU,-44.92,3.91,-970.21,-0.94,-0.18,1.67,10.20,44.55,-37.20,28.1
2026/04/13 14:47:12.42,IMU,-25.39,-16.60,-974.61,-1.57,-2.47,3.29,8.40,44.85,-35.85,28.1
2026/04/13 14:47:12.52,IMU,-33.20,4.88,-971.68,-2.98,-2.70,-2.10,10.05,43.65,-36.45,28.4
2026/04/13 14:47:12.62,IMU,-28.81,1.46,-975.59,-0.13,0.43,-0.31,10.05,45.45,-36.75,28.2
2026/04/13 14:47:12.72,IMU,-25.39,-0.49,-971.68,-2.09,-1.48,2.37,9.30,44.70,-37.80,28.1
2026/04/13 14:47:12.82,IMU,-30.76,-5.86,-976.56,1.21,1.66,-0.36,10.50,44.25,-36.60,27.9
2026/04/13 14:47:12.92,IMU,-21.97,-12.21,-968.75,-0.67,-0.57,-2.34,9.90,44.25,-36.90,28.1
2026/04/13 14:47:13.02,IMU,-37.11,-1.46,-978.03,-1.84,-0.31,0.84,10.05,45.45,-37.05,28.2
2026/04/13 14:47:13.13,IMU,-24.90,0.98,-974.61,0.18,0.27,-0.70,9.00,43.95,-34.95,28.2
2026/04/13 14:47:13.23,IMU,-40.53,-12.70,-977.05,-1.97,-2.06,1.06,10.20,44.55,-36.15,28.2
2026/04/13 14:47:13.33,IMU,-30.76,4.88,-975.10,-1.16,1.15,0.75,10.50,45.30,-36.90,28.0
2026/04/13 14:47:13.43,IMU,-39.06,-1.46,-986.33,0.30,1.54,-0.81,10.35,43.20,-36.45,28.2
2026/04/13 14:47:13.53,IMU,-38.57,-9.28,-977.54,-2.29,-0.73,-3.10,9.15,45.30,-36.15,28.3
2026/04/13 14:47:13.63,IMU,-28.81,-4.88,-976.56,-0.95,-0.86,1.77,9.90,43.80,-35.10,28.2
2026/04/13 14:47:13.73,IMU,-36.62,-1.46,-978.52,-1.84,0.04,1.43,10.05,44.70,-37.50,28.1
2026/04/13 14:47:13.83,IMU,-21.00,0.49,-983.40,-3.21,-2.28,0.91,9.90,44.25,-36.60,28.0
2026/04/13 14:47:13.93,IMU,-24.90,4.88,-982.42,-0.63,-2.72,0.50,11.10,44.70,-37.80,28.1
2026/04/13 14:47:14.03,IMU,-23.93,-4.39,-980.96,-0.84,-0.15,-0.75,11.10,43.20,-36.00,28.1
2026/04/13 14:47:14.13,IMU,-26.37,-13.18,-977.05,-0.24,-2.90,-1.17,10.95,45.30,-34.80,28.1
2026/04/13 14:47:14.23,IMU,-41.02,12.21,-982.42,0.36,-1.84,0.12,12.15,45.90,-36.45,28.3
2026/04/13 14:47:14.33,IMU,-34.67,11.23,-979.00,-1.05,-1.52,0.41,12.60,46.65,-36.45,28.0
2026/04/13 14:47:14.43,IMU,-35.16,5.37,-982.91,-0.19,-1.82,-1.96,12.90,46.20,-35.25,28.2
2026/04/13 14:47:14.54,IMU,-39.55,-5.86,-981.45,-0.72,-0.56,0.03,14.55,44.55,-36.15,28.2
2026/04/13 14:47:14.64,IMU,-21.97,-9.28,-979.98,0.13,-0.80,0.33,14.40,46.20,-35.25,28.4
2026/04/13 14:47:14.74,IMU,-29.79,-11.72,-990.72,0.10,-3.10,1.21,13.35,44.70,-36.00,27.8
2026/04/13 14:47:14.84,IMU,-32.71,-1.95,-983.40,-0.63,-2.52,-0.50,14.25,46.05,-35.85,28.2
2026/04/13 14:47:14.94,IMU,-27.83,-3.91,-962.89,-0.70,1.54,-1.73,15.15,43.95,-34.95,28.4
2026/04/13 14:47:15.04,IMU,-37.11,-2.44,-1014.16,-0.53,0.39,0.79,15.15,46.65,-34.95,28.2
2026/04/13 14:47:15.14,IMU,-36.13,-1.46,-973.14,-1.80,0.30,-0.75,10.80,42.15,-30.75,27.8
2026/04/13 14:47:15.24,IMU,-29.30,1.95,-980.96,-1.50,-1.94,0.59,12.15,46.65,-35.25,28.0
2026/04/13 14:47:15.34,IMU,-39.55,-8.30,-978.52,-0.30,-0.43,-2.78,14.25,46.05,-34.80,28.1
2026/04/13 14:47:15.44,IMU,-32.23,9.28,-973.14,-1.31,0.53,-0.99,13.35,45.45,-36.00,28.2
2026/04/13 14:47:15.55,IMU,-39.55,-3.42,-981.45,-2.11,-0.42,3.53,13.80,44.85,-35.85,28.0
2026/04/13 14:47:15.65,IMU,-39.06,-6.35,-990.23,-2.03,-2.24,-0.50,14.55,45.60,-35.10,28.3
2026/04/13 14:47:15.75,IMU,-31.74,7.32,-983.40,-0.42,-1.44,0.60,12.60,45.15,-34.20,28.0
2026/04/13 14:47:15.85,IMU,-39.06,-4.88,-975.59,2.07,-2.07,-0.95,14.25,44.85,-34.80,28.3
2026/04/13 14:47:15.95,IMU,-30.76,1.46,-982.42,-1.08,-0.76,0.59,13.80,45.30,-35.10,28.2
2026/04/13 14:47:16.05,IMU,-24.41,-2.44,-968.75,-2.18,-1.46,-2.81,15.15,45.45,-34.95,28.1
2026/04/13 14:47:16.15,IMU,-30.27,11.72,-985.35,-0.95,0.56,-2.24,14.40,43.95,-36.45,28.0
2026/04/13 14:47:16.25,IMU,-39.55,-4.88,-984.38,0.69,1.34,-0.09,14.40,45.45,-36.00,28.3
2026/04/13 14:47:16.35,IMU,-41.02,1.95,-976.56,-1.73,0.51,2.15,15.15,46.20,-34.65,28.1
2026/04/13 14:47:16.45,IMU,-32.23,3.91,-977.05,-0.95,-4.43,-0.95,13.50,45.60,-34.05,28.2
2026/04/13 14:47:16.55,IMU,-32.23,-0.98,-986.33,-2.40,-0.13,-0.98,14.85,45.60,-35.10,28.2
2026/04/13 14:47:16.65,IMU,-33.20,-7.32,-973.63,-0.24,-2.25,0.69,14.40,45.45,-34.95,28.3
2026/04/13 14:47:16.75,IMU,-35.64,-5.37,-975.59,-1.11,-0.23,4.04,14.85,45.60,-35.55,28.0
2026/04/13 14:47:16.86,IMU,-42.97,-1.46,-990.23,0.16,-2.31,-0.98,14.40,45.15,-33.15,28.2
2026/04/13 14:47:16.96,IMU,-34.18,-2.44,-974.12,-0.12,-0.77,0.78,13.95,44.40,-34.95,28.2
2026/04/13 14:47:17.06,IMU,-34.67,10.25,-971.68,-0.28,0.19,1.62,14.25,44.85,-35.55,28.0
2026/04/13 14:47:17.16,IMU,-42.48,3.91,-976.56,0.18,0.11,2.85,14.25,45.30,-34.50,28.2
2026/04/13 14:47:17.26,IMU,-35.64,4.39,-988.77,-0.60,-2.04,-1.67,14.25,46.05,-35.85,28.4
2026/04/13 14:47:17.36,IMU,-40.04,0.98,-979.49,-3.20,-1.97,2.31,13.80,45.30,-34.05,28.3
2026/04/13 14:47:17.46,IMU,-46.88,-4.88,-973.63,-0.29,-1.40,0.47,13.50,46.35,-34.05,28.0
2026/04/13 14:47:17.56,IMU,-15.14,1.46,-979.00,-1.64,-0.06,1.22,13.80,44.55,-35.55,28.4
2026/04/13 14:47:17.66,IMU,-36.62,4.88,-983.89,0.88,0.82,-1.68,13.65,45.15,-34.65,28.4
2026/04/13 14:47:17.76,IMU,-32.23,9.28,-981.45,-0.27,0.54,-0.64,14.40,44.70,-34.65,28.0
2026/04/13 14:47:17.86,IMU,-18.07,-3.42,-977.54,0.33,-0.56,-2.82,14.70,45.15,-34.65,28.2
2026/04/13 14:47:17.96,IMU,-26.86,-4.39,-977.05,-0.71,-1.11,-2.49,12.60,44.70,-34.95,28.0
2026/04/13 14:47:18.06,IMU,-37.11,0.98,-991.70,-1.73,-0.69,0.75,13.80,44.85,-34.05,27.9
2026/04/13 14:47:18.16,IMU,-28.81,-7.32,-973.63,-3.30,-1.06,1.22,16.05,45.30,-34.05,28.1
2026/04/13 14:47:18.27,IMU,-31.74,-6.35,-987.30,0.18,-2.09,0.75,16.05,44.55,-33.75,28.3
2026/04/13 14:47:18.37,IMU,-31.74,1.95,-1003.91,0.15,-1.76,-1.01,14.70,44.70,-34.20,28.2
2026/04/13 14:47:18.47,IMU,-26.37,0.98,-957.03,-0.75,-1.69,3.89,14.70,43.95,-33.90,28.0
2026/04/13 14:47:18.57,IMU,-34.18,-5.37,-986.82,-3.38,-1.89,0.40,16.05,44.85,-34.05,28.2
2026/04/13 14:47:18.67,IMU,-38.09,-6.84,-975.10,-1.34,-1.69,2.60,14.40,44.70,-33.60,28.4
2026/04/13 14:47:18.77,IMU,-36.13,8.79,-975.59,0.08,1.05,-1.95,15.60,44.25,-34.50,27.8
2026/04/13 14:47:18.87,IMU,-41.50,-1.46,-976.56,-1.31,-0.63,1.88,15.45,45.90,-33.90,28.0
2026/04/13 14:47:18.97,IMU,-35.16,3.42,-979.98,-0.79,-2.09,-1.65,13.80,44.85,-35.55,28.0
2026/04/13 14:47:19.07,IMU,-23.93,3.42,-985.35,0.48,-0.31,-0.36,14.40,44.70,-34.65,28.1
2026/04/13 14:47:19.17,IMU,-19.53,5.37,-979.49,-3.83,-3.33,-0.31,14.70,45.90,-35.25,28.1
2026/04/13 14:47:19.27,IMU,-38.57,3.42,-979.98,-1.33,-1.33,2.26,13.80,44.55,-34.50,28.2
2026/04/13 14:47:19.37,IMU,-25.39,-1.46,-964.84,1.22,-1.80,-1.53,13.80,44.85,-34.80,28.0
2026/04/13 14:47:19.47,IMU,-43.95,-12.70,-978.52,-1.77,1.69,-1.33,15.45,44.70,-34.20,28.0
2026/04/13 14:47:19.58,IMU,-19.53,-3.91,-983.40,-0.99,0.75,3.45,14.55,45.30,-33.75,28.0
2026/04/13 14:47:19.68,IMU,-22.95,-2.44,-980.47,-1.75,-1.08,1.69,13.95,44.40,-34.65,28.2
2026/04/13 14:47:19.78,IMU,-30.27,-8.79,-960.45,-1.06,-0.96,0.17,16.65,45.60,-34.05,28.0
2026/04/13 14:47:19.88,IMU,-36.13,-1.46,-979.00,0.34,0.44,0.14,14.40,45.15,-34.65,28.2
2026/04/13 14:47:19.98,IMU,-17.58,-2.44,-976.56,0.00,-1.38,0.03,15.30,44.25,-34.05,28.0
2026/04/13 14:47:20.08,IMU,-26.37,-3.42,-982.91,0.19,-0.75,-1.44,15.15,44.70,-34.65,28.2
2026/04/13 14:47:20.18,IMU,-27.83,4.88,-980.47,-0.73,0.13,0.63,15.45,45.45,-35.25,28.0
2026/04/13 14:47:20.28,IMU,-39.06,-2.44,-983.40,-0.43,1.60,0.08,10.80,43.95,-32.10,28.0
2026/04/13 14:47:20.38,IMU,-35.16,-4.39,-967.29,0.73,-1.03,-0.48,15.15,45.15,-35.25,28.2
2026/04/13 14:47:20.48,IMU,-39.06,4.39,-967.77,-0.80,-0.11,-1.34,14.70,45.15,-35.25,28.2
2026/04/13 14:47:20.58,IMU,-38.57,-0.98,-989.75,-0.81,-1.06,-0.87,14.55,46.05,-35.10,28.1
2026/04/13 14:47:20.68,IMU,-24.41,3.42,-979.98,-0.85,-0.32,0.85,13.80,46.35,-34.05,28.3
2026/04/13 14:47:20.78,IMU,-15.14,-0.49,-986.33,-0.81,-0.05,-1.23,14.85,46.05,-34.05,28.3
2026/04/13 14:47:20.89,IMU,-16.60,-7.81,-975.59,0.06,-0.05,-0.31,16.20,43.95,-33.15,28.1
2026/04/13 14:47:20.99,IMU,-29.30,0.98,-971.19,0.74,0.15,1.79,14.70,45.90,-34.65,28.2
2026/04/13 14:47:21.09,IMU,-20.02,4.39,-979.00,-0.44,0.43,2.85,16.20,46.65,-34.65,28.2
2026/04/13 14:47:21.19,IMU,-22.46,-0.98,-980.47,-1.30,-0.39,-0.53,16.20,45.45,-34.65,28.2
2026/04/13 14:47:21.29,IMU,-28.32,1.46,-993.65,0.25,-1.40,1.08,11.70,44.25,-30.15,28.0
2026/04/13 14:47:21.39,IMU,-30.76,-2.93,-976.56,-1.51,0.79,-1.15,14.70,45.15,-34.95,28.0
2026/04/13 14:47:21.49,IMU,-35.64,-1.46,-987.79,-1.13,-1.77,1.15,14.55,44.85,-33.30,28.4
2026/04/13 14:47:21.59,IMU,-35.64,-2.44,-970.70,-1.27,-2.26,1.68,15.45,45.15,-33.60,28.4
2026/04/13 14:47:21.69,IMU,-34.18,-3.91,-974.61,0.51,-0.56,1.07,14.70,43.65,-35.25,28.3
2026/04/13 14:47:21.79,IMU,-23.93,6.35,-966.31,-0.82,0.02,0.08,13.95,45.45,-33.15,28.0
2026/04/13 14:47:21.89,IMU,-35.64,-10.25,-974.61,1.95,0.69,2.34,14.55,44.55,-34.50,28.0
2026/04/13 14:47:21.99,IMU,-38.57,-7.81,-966.31,1.30,-0.53,2.38,16.05,44.85,-35.10,28.3
2026/04/13 14:47:22.09,IMU,-26.37,1.95,-980.47,-0.89,1.42,1.81,15.15,45.45,-34.20,28.1
2026/04/13 14:47:22.20,IMU,-25.39,8.30,-979.49,-0.67,-2.56,3.31,15.15,45.45,-34.95,28.0
2026/04/13 14:47:22.31,IMU,-50.29,-0.98,-973.63,-1.24,-2.20,2.56,11.25,42.75,-30.15,28.0
2026/04/13 14:47:22.41,IMU,-32.23,-1.95,-982.91,1.05,-0.85,1.87,14.85,44.55,-34.05,27.9
2026/04/13 14:47:22.51,IMU,-35.64,6.84,-982.91,0.46,-0.30,0.05,13.80,46.05,-34.80,28.0
2026/04/13 14:47:24.10,IMU,-44.92,0.49,-971.19,-0.11,-1.98,-0.88,15.75,44.70,-36.00,28.4
2026/04/13 14:47:24.20,IMU,-27.34,-7.32,-973.14,-1.02,-0.73,-0.23,13.65,45.90,-34.95,28.2
2026/04/13 14:47:24.30,IMU,-33.69,-15.14,-989.75,-0.98,2.18,1.27,14.55,45.60,-34.50,28.1
2026/04/13 14:47:24.40,IMU,-30.76,2.93,-978.52,-0.24,-0.48,-1.02,14.25,44.55,-34.05,28.4
2026/04/13 14:47:24.50,IMU,-41.02,5.37,-975.59,0.40,0.39,-1.72,15.15,45.15,-34.65,28.2
2026/04/13 14:47:24.60,IMU,-36.62,2.44,-977.05,-1.40,-0.69,0.47,13.80,45.30,-35.10,28.2
2026/04/13 14:47:24.70,IMU,-43.46,5.86,-978.52,-2.63,-2.58,2.84,13.80,44.85,-35.10,28.2
2026/04/13 14:47:24.80,IMU,-35.64,2.93,-972.17,-0.77,-1.68,0.15,13.95,45.15,-33.15,27.9
2026/04/13 14:47:24.90,IMU,-41.50,-0.98,-985.84,-0.72,-0.60,0.10,15.30,44.85,-35.10,28.1
2026/04/13 14:47:25.01,IMU,-37.11,2.93,-967.29,-1.53,-1.42,-1.89,14.55,44.85,-34.80,28.0
2026/04/13 14:47:25.11,IMU,-19.53,-11.23,-978.52,-0.22,-1.28,0.37,14.25,44.25,-34.05,28.3
2026/04/13 14:47:25.21,IMU,-31.74,-5.37,-972.17,-0.66,-0.03,3.37,14.70,44.70,-33.15,28.0
2026/04/13 14:47:25.31,IMU,-35.64,-14.65,-982.42,-0.69,-1.08,-0.21,15.75,45.90,-33.90,28.0
2026/04/13 14:47:25.41,IMU,-27.83,-6.84,-974.12,0.65,0.82,-0.05,14.70,46.20,-35.25,28.2
2026/04/13 14:47:25.51,IMU,-32.23,6.35,-974.61,-0.68,-0.46,-1.98,14.70,45.45,-36.45,28.4
2026/04/13 14:47:25.61,IMU,-25.39,7.81,-982.91,-0.20,-3.43,0.75,13.95,46.65,-33.60,28.2
2026/04/13 14:47:25.71,IMU,-27.34,-10.74,-982.91,-2.15,-2.62,-0.84,13.95,45.45,-34.20,28.0
2026/04/13 14:47:25.81,IMU,-33.20,-4.88,-974.61,-0.86,-1.80,-0.35,14.85,45.60,-34.50,28.1
2026/04/13 14:47:25.91,IMU,-49.32,-9.28,-981.93,-0.83,1.76,-0.86,14.40,45.90,-32.55,28.4
2026/04/13 14:47:26.01,IMU,-24.90,-3.91,-976.56,-2.76,-1.10,0.67,14.70,44.40,-34.65,28.2
2026/04/13 14:47:26.11,IMU,-45.41,0.98,-974.61,0.98,-1.09,0.51,15.60,44.25,-34.05,28.1
2026/04/13 14:47:26.21,IMU,-40.04,-7.81,-971.68,-3.70,-1.73,1.93,15.75,44.40,-35.25,28.4
2026/04/13 14:47:26.32,IMU,-37.60,8.30,-979.49,-1.84,0.79,2.11,13.50,45.30,-35.10,28.1
2026/04/13 14:47:26.42,IMU,-26.37,6.84,-974.61,0.95,-0.08,1.78,15.30,45.60,-34.05,28.2
2026/04/13 14:47:26.52,IMU,-38.57,-15.14,-975.59,-0.18,-0.31,0.22,14.85,44.85,-35.55,28.2
2026/04/13 14:47:26.62,IMU,-31.25,0.98,-975.10,-2.49,-0.91,-0.05,15.15,45.15,-34.95,28.0
2026/04/13 14:47:26.72,IMU,-41.99,-5.37,-970.70,-1.32,-1.71,-0.42,13.65,45.45,-34.20,28.4
2026/04/13 14:47:26.82,IMU,-18.55,1.95,-985.84,-0.60,-0.94,1.22,14.70,45.90,-32.85,28.4
2026/04/13 14:47:26.92,IMU,-38.57,2.93,-978.03,0.73,-2.92,2.59,15.45,45.90,-33.15,28.2
2026/04/13 14:47:27.02,IMU,-40.53,-5.86,-989.26,-2.01,2.18,1.37,14.25,46.05,-35.10,28.4
2026/04/13 14:47:27.12,IMU,-18.07,-1.95,-979.49,-1.92,-1.24,-1.04,15.15,45.45,-33.90,28.3
2026/04/13 14:47:27.22,IMU,-39.55,-14.65,-974.61,-1.93,-0.80,-0.55,16.05,43.50,-35.10,28.4
2026/04/13 14:47:27.32,IMU,-33.69,3.91,-976.56,-0.21,0.43,0.14,13.95,45.45,-34.20,28.2
2026/04/13 14:47:27.42,IMU,-24.90,-2.93,-969.24,-1.73,0.22,-0.87,14.70,44.70,-35.25,28.4
2026/04/13 14:47:27.52,IMU,-31.74,3.42,-976.07,-1.53,-2.71,-2.86,15.30,44.25,-34.50,28.0
2026/04/13 14:47:27.63,IMU,-31.74,-10.74,-984.86,-1.78,-0.56,0.47,15.30,44.55,-34.50,28.4
2026/04/13 14:47:27.73,IMU,-42.48,-6.35,-987.30,-0.51,-0.85,-0.36,15.30,45.30,-33.75,28.0
2026/04/13 14:47:27.83,IMU,-31.25,-5.86,-974.12,-0.55,-1.30,-3.85,15.30,44.85,-34.80,28.0
2026/04/13 14:47:27.93,IMU,-34.18,-0.49,-976.07,0.28,-0.34,-3.01,15.60,44.85,-34.80,27.9
2026/04/13 14:47:28.03,IMU,-38.57,2.93,-984.86,0.94,0.15,-0.83,13.95,45.15,-33.15,28.0
2026/04/13 14:47:28.13,IMU,-33.20,4.88,-974.61,1.66,-0.97,2.04,15.30,44.55,-33.75,28.2
2026/04/13 14:47:28.23,IMU,-37.60,-3.91,-963.87,-0.44,-0.63,0.24,10.95,44.25,-31.20,27.9
2026/04/13 14:47:28.33,IMU,-25.88,-7.32,-967.29,0.20,0.12,0.27,15.30,46.35,-33.00,27.8
2026/04/13 14:47:28.43,IMU,-39.06,-0.49,-979.49,-0.71,0.53,-0.81,14.55,45.30,-33.30,28.2
2026/04/13 14:47:28.53,IMU,-12.70,-6.35,-976.56,-0.44,0.47,1.19,15.15,43.65,-33.60,28.2
2026/04/13 14:47:28.63,IMU,-32.23,-1.46,-982.42,-1.03,0.23,0.69,14.55,45.30,-34.05,28.3
2026/04/13 14:47:28.73,IMU,-29.79,-10.25,-964.84,-0.60,-0.52,0.73,15.45,45.45,-33.60,28.0
2026/04/13 14:47:28.83,IMU,-31.74,-7.32,-977.05,-1.17,-0.31,-0.05,14.85,44.55,-35.10,28.3
2026/04/13 14:47:28.93,IMU,-41.02,2.44,-968.75,2.34,-0.25,0.53,13.80,44.25,-34.05,28.4
2026/04/13 14:47:29.04,IMU,-30.27,0.49,-979.98,-0.04,0.99,-0.34,14.25,43.80,-34.05,28.0
2026/04/13 14:47:29.14,IMU,-19.53,3.42,-986.33,-1.50,0.56,0.18,14.70,43.20,-34.65,28.2
2026/04/13 14:47:29.24,IMU,-30.76,10.25,-986.82,0.21,-1.58,-4.16,10.95,42.75,-29.85,28.2
2026/04/13 14:47:29.34,IMU,-23.93,-4.39,-967.29,-0.02,-1.57,0.50,15.45,44.40,-34.95,27.9
2026/04/13 14:47:29.44,IMU,-39.06,1.46,-982.91,-1.72,-1.11,0.25,15.75,45.15,-35.25,28.0
2026/04/13 14:47:29.54,IMU,-34.18,2.44,-972.66,0.56,-0.77,0.78,15.30,45.30,-33.75,28.1
2026/04/13 14:47:29.64,IMU,-46.39,0.98,-973.14,-1.50,0.14,-1.13,14.25,45.60,-34.80,28.4
2026/04/13 14:47:29.74,IMU,-29.30,-8.30,-973.63,-0.82,0.47,2.93,15.30,46.05,-34.05,28.2
2026/04/13 14:47:29.84,IMU,-32.71,-3.91,-980.96,-1.92,-0.75,0.56,15.75,45.45,-34.65,28.0
2026/04/13 14:47:29.95,IMU,-47.85,2.44,-974.12,-0.81,-0.26,-0.17,14.70,44.40,-34.95,27.8
2026/04/13 14:47:30.05,IMU,-26.86,-3.91,-982.42,-3.12,-1.20,0.09,16.35,46.05,-35.85,28.1
2026/04/13 14:47:30.15,IMU,-27.83,-12.70,-978.03,0.59,-1.06,1.45,15.15,44.40,-34.65,28.3
2026/04/13 14:47:30.25,IMU,-21.48,-16.60,-976.07,-0.99,-0.70,-2.95,15.30,44.85,-34.50,28.3
2026/04/13 14:47:30.35,IMU,-27.34,-10.25,-978.52,0.63,-1.44,1.02,15.15,44.40,-33.90,28.2
2026/04/13 14:47:30.45,IMU,-37.60,-4.88,-982.91,-0.69,-0.93,-0.45,14.25,45.60,-34.05,28.3
2026/04/13 14:47:30.55,IMU,-26.37,7.32,-972.17,2.01,-0.73,-3.51,14.70,45.90,-35.25,28.2
2026/04/13 14:47:30.65,IMU,-41.02,3.42,-974.61,0.25,-0.88,-0.06,16.50,45.45,-33.90,28.2
2026/04/13 14:47:30.75,IMU,-41.02,1.95,-979.49,-1.26,1.16,1.60,14.55,45.60,-33.75,28.2
2026/04/13 14:47:30.85,IMU,-31.74,4.39,-976.56,-1.47,0.24,0.00,14.85,45.60,-35.10,28.0
2026/04/13 14:47:30.95,IMU,-39.06,7.81,-978.52,-0.47,-0.44,-0.13,14.40,43.95,-34.65,28.0
2026/04/13 14:47:31.05,IMU,-35.64,-5.86,-983.89,0.19,0.25,0.53,15.30,45.30,-33.30,28.3
2026/04/13 14:47:31.15,IMU,-34.18,6.84,-975.59,-0.38,-3.70,-0.38,14.40,44.40,-34.20,28.1
2026/04/13 14:47:31.26,IMU,-36.62,-11.72,-979.00,-0.15,-1.97,-0.89,16.05,45.30,-34.80,27.8
2026/04/13 14:47:31.36,IMU,-37.11,1.95,-976.56,-0.37,1.21,2.85,16.05,44.55,-35.10,28.1
2026/04/13 14:47:31.46,IMU,-39.55,-0.98,-979.00,0.69,0.15,-2.00,15.60,44.55,-34.50,28.2
2026/04/13 14:47:31.56,IMU,-47.85,-0.98,-978.52,-0.60,-0.31,0.92,14.70,45.15,-33.60,28.0
2026/04/13 14:47:31.66,IMU,-18.55,7.32,-975.10,0.61,1.51,0.70,14.25,43.50,-34.80,28.0
2026/04/13 14:47:31.76,IMU,-26.37,7.32,-982.91,-1.28,-3.02,-0.06,13.65,44.40,-34.95,28.4
2026/04/13 14:47:31.86,IMU,-33.69,-5.86,-987.79,-1.47,1.09,2.55,16.35,45.30,-33.75,28.4
2026/04/13 14:47:31.96,IMU,-34.18,-1.95,-984.86,-1.02,-0.74,3.37,14.40,45.45,-33.90,28.0
2026/04/13 14:47:32.06,IMU,-37.60,1.95,-984.38,-0.97,-2.56,0.50,15.60,45.60,-35.10,28.3
2026/04/13 14:47:32.16,IMU,-30.76,-12.21,-977.54,-2.18,1.47,-1.23,15.60,44.85,-34.50,28.3
2026/04/13 14:47:32.26,IMU,-43.95,4.39,-973.63,-0.96,-0.15,4.82,14.40,45.45,-35.25,28.4
2026/04/13 14:47:32.36,IMU,-37.60,3.91,-988.28,0.97,-0.64,-0.28,14.40,44.40,-33.60,28.1
2026/04/13 14:47:32.46,IMU,-37.11,-7.81,-972.66,-0.07,0.42,-1.07,16.05,44.55,-34.50,28.3
2026/04/13 14:47:32.57,IMU,-37.11,16.60,-978.03,-1.93,-0.41,0.70,15.15,45.15,-35.70,28.1
2026/04/13 14:47:32.67,IMU,-32.71,-6.84,-976.56,-1.95,-1.39,0.30,14.70,45.90,-33.90,28.0
2026/04/13 14:47:32.77,IMU,-23.44,-7.81,-965.33,-1.17,-1.53,-0.90,14.25,45.30,-34.80,28.2
2026/04/13 14:47:32.87,IMU,-41.99,7.81,-975.10,1.28,-1.73,-1.65,14.40,44.40,-33.90,28.0
2026/04/13 14:47:32.97,IMU,-39.55,6.84,-975.59,-1.92,-2.09,1.39,14.40,44.70,-33.90,28.0
2026/04/13 14:47:33.07,IMU,-30.27,-15.14,-972.17,-0.31,0.36,-0.55,13.95,45.90,-34.95,28.3
2026/04/13 14:47:33.17,IMU,-23.44,-1.46,-979.00,1.50,0.05,0.72,15.45,44.40,-33.60,28.0
2026/04/13 14:47:33.27,IMU,-38.09,-9.28,-973.14,-1.06,-0.66,-1.69,14.25,45.30,-34.80,28.2
2026/04/13 14:47:33.37,IMU,-41.99,4.88,-977.05,-1.84,-1.91,1.45,15.15,44.70,-34.65,28.2
2026/04/13 14:47:33.47,IMU,-27.34,-3.42,-982.91,-1.88,-0.89,0.37,15.15,45.90,-34.65,28.5
2026/04/13 14:47:33.57,IMU,-37.60,-5.86,-973.14,-1.32,0.56,1.07,14.25,44.55,-35.55,28.2
2026/04/13 14:47:33.67,IMU,-37.60,-6.84,-974.61,-0.11,0.38,0.75,14.70,46.65,-34.65,27.9
2026/04/13 14:47:33.77,IMU,-35.64,11.72,-973.63,-0.57,-0.31,0.96,15.60,43.80,-34.80,28.2
2026/04/13 14:47:33.87,IMU,-31.25,-5.37,-974.12,0.05,1.69,-2.24,15.30,46.05,-34.50,28.4
2026/04/13 14:47:33.98,IMU,-35.64,-8.30,-964.84,1.49,-0.71,-0.29,15.60,44.25,-35.10,28.0
2026/04/13 14:47:34.08,IMU,-27.83,-8.79,-979.98,0.24,-0.33,0.94,14.70,46.20,-35.70,28.1
2026/04/13 14:47:34.18,IMU,-37.11,9.28,-977.05,0.55,-1.53,2.91,15.75,44.70,-34.65,28.4
2026/04/13 14:47:34.28,IMU,-32.23,-5.86,-979.98,0.44,-1.23,1.09,13.95,46.20,-34.20,28.4
2026/04/13 14:47:34.38,IMU,-38.09,-0.49,-975.59,-0.24,-0.76,1.99,12.45,43.05,-31.95,28.2
2026/04/13 14:47:34.48,IMU,-38.57,-3.91,-975.10,-1.32,1.23,-0.69,15.75,44.70,-34.65,28.4
2026/04/13 14:47:34.58,IMU,-35.64,-5.86,-974.12,-0.56,-0.60,0.34,14.85,45.60,-33.30,28.2
2026/04/13 14:47:34.68,IMU,-45.90,-10.74,-968.26,-0.53,1.11,-0.52,15.45,45.15,-35.70,28.1
2026/04/13 14:47:34.78,IMU,-43.46,-9.77,-972.17,-2.92,-1.92,-0.31,15.75,45.15,-34.20,28.1
2026/04/13 14:47:34.88,IMU,-38.57,-4.88,-978.52,-0.64,-0.60,-2.63,15.15,44.70,-34.95,28.0
2026/04/13 14:47:34.98,IMU,-42.48,-5.86,-978.52,0.39,0.66,-0.83,15.15,45.90,-33.60,28.0
2026/04/13 14:47:35.08,IMU,-28.32,-0.49,-972.66,0.98,0.18,0.62,15.60,44.55,-33.30,28.2
2026/04/13 14:47:35.18,IMU,-30.27,2.44,-977.54,-1.38,-0.95,-2.40,15.30,44.85,-34.50,27.9
2026/04/13 14:47:35.29,IMU,-24.90,0.00,-979.49,-0.19,-0.46,-0.74,13.95,46.20,-33.90,28.2
2026/04/13 14:47:35.39,IMU,-36.13,-9.77,-965.82,-0.51,-0.66,0.67,11.70,43.05,-29.10,27.8
2026/04/13 14:47:35.49,IMU,-30.76,-2.44,-981.45,1.41,-0.32,-0.66,15.15,44.70,-34.20,28.0
2026/04/13 14:47:35.59,IMU,-38.57,4.39,-973.14,1.14,0.84,-2.24,15.15,45.15,-33.60,28.4
2026/04/13 14:47:35.69,IMU,-29.79,2.93,-974.61,2.25,-1.53,2.93,15.45,44.40,-34.65,28.3
2026/04/13 14:47:35.79,IMU,-29.30,-3.42,-974.12,-0.70,0.30,2.31,15.75,45.45,-34.20,28.1
2026/04/13 14:47:35.89,IMU,-38.57,-7.32,-968.26,-3.05,-1.66,0.29,14.70,44.70,-34.20,28.0
2026/04/13 14:47:35.99,IMU,-36.62,8.30,-978.03,-0.63,-1.08,-0.23,14.25,44.85,-34.05,28.1
2026/04/13 14:47:36.09,IMU,-41.02,0.00,-975.10,0.40,-0.18,1.62,15.15,45.45,-34.20,28.0
2026/04/13 14:47:36.19,IMU,-36.62,-3.42,-972.66,-1.15,-0.01,3.16,15.75,44.70,-34.20,28.4
2026/04/13 14:47:36.29,IMU,-44.92,-8.30,-960.94,-2.50,1.11,1.71,16.05,47.10,-33.75,28.2
2026/04/13 14:47:36.39,IMU,-36.62,1.46,-986.33,0.06,-0.72,-1.74,14.70,45.15,-34.95,28.4
2026/04/13 14:47:36.50,IMU,-36.62,-9.28,-980.47,0.79,-1.30,0.27,15.15,45.15,-34.95,28.4
2026/04/13 14:47:36.60,IMU,-25.39,9.77,-986.33,-0.85,-2.13,0.90,15.45,46.95,-33.60,28.4
2026/04/13 14:47:36.70,IMU,-33.69,3.91,-978.03,0.23,-2.23,2.59,15.15,44.40,-33.60,28.0
2026/04/13 14:47:36.80,IMU,-39.55,-2.44,-972.17,0.74,1.80,-2.00,13.65,45.45,-32.85,28.1
2026/04/13 14:47:36.90,IMU,-39.06,-4.88,-977.54,-1.34,1.50,3.07,14.85,45.60,-34.50,28.0
2026/04/13 14:47:37.00,IMU,-25.39,0.98,-984.38,-1.37,0.21,-0.77,14.85,44.55,-34.50,28.0
2026/04/13 14:47:37.10,IMU,-23.44,2.44,-971.19,0.34,-0.86,0.49,13.50,45.30,-36.15,28.0
2026/04/13 14:47:37.20,IMU,-26.37,-3.91,-981.93,-0.99,-1.66,2.47,15.15,45.90,-33.90,28.1
2026/04/13 14:47:37.30,IMU,-31.25,-10.74,-981.93,-1.40,0.31,-0.39,15.30,44.55,-34.50,28.2
2026/04/13 14:47:37.40,IMU,-32.71,2.44,-968.26,0.05,0.94,-2.67,15.45,43.95,-35.25,28.0
2026/04/13 14:47:37.50,IMU,-35.64,-12.70,-974.61,-1.49,0.54,-1.95,15.60,45.60,-35.85,28.1
2026/04/13 14:47:37.60,IMU,-38.09,11.72,-975.59,-0.40,0.96,-1.82,14.55,45.30,-35.10,28.1
2026/04/13 14:47:37.70,IMU,-36.62,0.98,-982.91,-0.44,0.00,1.27,14.70,44.40,-34.95,28.0
2026/04/13 14:47:37.80,IMU,-43.46,-10.74,-983.40,0.92,-1.40,0.02,14.70,45.15,-33.15,28.2
2026/04/13 14:47:37.91,IMU,-47.85,-2.93,-979.00,1.02,-2.49,0.98,14.40,46.20,-35.70,28.1
2026/04/13 14:47:38.01,IMU,-13.67,0.00,-979.00,-0.53,-0.58,-0.34,15.30,46.35,-34.05,28.4
2026/04/13 14:47:38.11,IMU,-46.88,-6.35,-972.17,0.61,-0.10,0.98,15.45,45.45,-33.60,28.1
2026/04/13 14:47:38.21,IMU,-44.92,3.42,-980.96,-1.40,-2.14,3.38,15.15,44.70,-33.90,28.2
2026/04/13 14:47:38.31,IMU,-29.30,-3.91,-979.00,-0.50,-1.60,-0.73,15.45,45.45,-35.25,28.1
2026/04/13 14:47:38.41,IMU,-34.67,1.46,-966.31,0.45,-2.21,0.66,16.95,46.20,-35.70,28.0
2026/04/13 14:47:38.51,IMU,-39.55,-0.49,-971.68,-0.96,-1.11,1.98,14.85,44.85,-34.05,28.2
2026/04/13 14:47:38.61,IMU,-29.30,-6.35,-981.45,3.11,-0.20,-0.41,16.05,45.30,-34.50,28.2
2026/04/13 14:47:38.71,IMU,-32.23,-1.46,-977.54,-1.27,1.17,-0.28,15.30,45.60,-35.10,28.0
2026/04/13 14:47:38.81,IMU,-38.57,-1.46,-971.19,-1.35,-3.44,1.56,13.80,44.55,-33.75,28.2
2026/04/13 14:47:38.91,IMU,-35.64,8.30,-968.75,-3.19,-1.11,1.72,14.85,44.85,-34.50,28.0
2026/04/13 14:47:39.01,IMU,-36.62,-12.70,-976.07,-0.37,-2.29,0.61,14.85,44.85,-35.10,28.2
2026/04/13 14:47:39.11,IMU,-33.20,-6.35,-973.63,-1.08,0.41,-1.40,14.70,45.90,-34.95,28.0
2026/04/13 14:47:39.22,IMU,-34.67,2.44,-968.26,1.12,-1.82,0.99,15.75,46.20,-34.95,28.2
2026/04/13 14:47:39.32,IMU,-21.97,-2.44,-989.26,0.69,0.25,0.11,15.15,45.45,-33.15,28.0
2026/04/13 14:47:39.42,IMU,-41.02,3.42,-986.33,1.23,-1.90,-1.90,14.40,45.45,-33.15,28.1
2026/04/13 14:47:39.52,IMU,-33.69,-2.93,-973.14,-1.51,-0.56,1.37,15.45,46.20,-34.95,28.4
2026/04/13 14:47:39.62,IMU,-35.16,10.74,-978.03,-1.08,0.39,0.87,14.55,44.85,-34.50,28.1
2026/04/13 14:47:39.72,IMU,-35.64,-6.84,-971.68,-1.69,-3.01,-2.13,15.75,44.40,-34.65,28.0
2026/04/13 14:47:39.82,IMU,-30.27,-2.44,-968.26,0.26,-0.89,-0.69,15.15,45.15,-35.25,28.3
2026/04/13 14:47:39.92,IMU,-26.86,0.49,-975.59,-0.77,-0.66,-4.63,15.75,43.65,-36.00,28.2
2026/04/13 14:47:40.02,IMU,-34.18,-0.98,-972.66,-0.58,-0.38,4.41,14.55,45.30,-34.50,28.2
2026/04/13 14:47:40.12,IMU,-41.99,-16.11,-979.98,-1.00,1.21,1.62,15.45,45.90,-34.95,28.0
2026/04/13 14:47:40.22,IMU,-40.53,8.30,-979.98,-2.24,-0.85,-0.30,14.55,46.05,-33.75,28.0
2026/04/13 14:47:40.32,IMU,-29.79,-4.39,-973.63,1.03,-0.94,0.50,13.95,46.20,-34.65,28.0
2026/04/13 14:47:40.42,IMU,-27.83,-0.49,-974.61,-2.26,-1.15,0.98,15.60,45.30,-35.10,27.7
2026/04/13 14:47:40.53,IMU,-29.79,-7.81,-964.84,0.85,-0.45,-0.25,12.00,43.80,-30.60,28.0
2026/04/13 14:47:40.63,IMU,-42.97,-5.37,-984.38,1.63,1.21,-0.82,14.55,44.85,-33.30,28.0
2026/04/13 14:47:40.73,IMU,-27.34,-3.42,-979.98,-1.49,-1.40,1.25,15.45,44.40,-33.60,28.3
2026/04/13 14:47:40.83,IMU,-34.18,-11.72,-975.10,-0.17,-0.47,0.03,15.30,45.30,-34.50,27.8
2026/04/13 14:47:40.93,IMU,-26.86,-20.51,-980.47,0.08,-2.06,0.66,14.85,44.55,-34.50,28.1
2026/04/13 14:47:41.03,IMU,-30.27,8.30,-966.80,0.17,0.21,1.92,16.05,45.60,-34.50,28.0
2026/04/13 14:47:41.13,IMU,-42.48,-6.35,-989.75,-0.54,0.72,-1.86,15.60,45.30,-35.10,28.2
2026/04/13 14:47:41.23,IMU,-21.48,-5.37,-962.40,-0.49,-1.63,-1.04,15.75,45.15,-34.65,28.0
2026/04/13 14:47:41.33,IMU,-30.76,1.95,-971.68,-0.82,-2.15,-0.33,14.55,44.55,-34.05,28.1
2026/04/13 14:47:41.43,IMU,-19.04,-6.84,-970.70,-1.07,-1.46,0.29,14.40,46.20,-33.90,28.2
2026/04/13 14:47:41.53,IMU,-22.95,10.74,-975.59,1.05,-0.08,0.85,10.95,42.00,-28.80,28.3
2026/04/13 14:47:41.63,IMU,-41.50,6.84,-974.12,-0.38,-0.93,0.05,15.60,45.60,-34.80,28.3
2026/04/13 14:47:41.73,IMU,-38.57,-5.86,-976.56,-1.38,-1.85,-1.05,14.55,44.25,-33.75,28.0
2026/04/13 14:47:41.83,IMU,-35.16,-2.44,-971.19,-1.61,-1.08,1.32,13.65,45.45,-34.65,28.3
2026/04/13 14:47:41.94,IMU,-31.25,-12.21,-979.00,-0.49,-1.17,3.65,14.55,44.85,-34.80,27.9
2026/04/13 14:47:42.04,IMU,-28.81,1.46,-969.24,-1.71,-1.38,2.63,15.30,46.05,-35.10,28.2
2026/04/13 14:47:42.14,IMU,-36.13,-17.09,-967.77,0.05,0.27,-1.50,14.85,44.85,-34.50,28.4
2026/04/13 14:47:42.24,IMU,-44.43,-3.42,-976.56,-1.44,1.18,0.37,15.45,44.70,-34.95,28.4
2026/04/13 14:47:42.34,IMU,-36.13,10.74,-978.52,-1.23,-0.26,-1.02,14.70,45.90,-33.90,28.4
2026/04/13 14:47:42.44,IMU,-32.71,-7.81,-982.42,-0.43,-1.11,-1.27,15.45,45.15,-34.65,28.2
2026/04/13 14:47:42.54,IMU,-30.76,-4.39,-979.00,-1.34,-2.55,1.02,15.60,44.55,-33.75,28.1
2026/04/13 14:47:42.64,IMU,-27.34,1.46,-980.47,-0.85,-2.45,1.46,14.70,44.40,-34.65,27.9
2026/04/13 14:47:42.74,IMU,-34.18,-9.77,-971.19,-0.89,2.24,-0.02,13.65,45.45,-34.65,28.2
2026/04/13 14:47:42.84,IMU,-44.43,6.84,-976.07,-0.97,-1.05,-1.39,16.05,43.80,-34.05,28.2
2026/04/13 14:47:42.94,IMU,-30.76,2.44,-975.59,-0.59,-1.15,0.28,14.70,46.65,-35.70,28.2
2026/04/13 14:47:43.04,IMU,-26.37,-6.84,-982.91,-1.44,-2.00,-1.15,15.15,43.65,-34.65,28.4
2026/04/13 14:47:43.14,IMU,-31.25,5.86,-967.29,0.27,-2.81,-0.53,13.80,45.30,-33.75,28.2
2026/04/13 14:47:43.25,IMU,-29.30,7.81,-978.52,-1.06,-0.92,-0.21,14.25,45.30,-34.50,28.3
2026/04/13 14:47:43.35,IMU,-28.32,1.95,-972.66,-0.24,-0.50,1.45,16.05,45.60,-34.50,28.0
2026/04/13 14:47:43.45,IMU,-26.86,5.37,-969.73,-0.11,-4.85,-1.67,14.40,44.70,-34.65,28.2
2026/04/13 14:47:43.55,IMU,-27.34,-4.39,-969.73,-1.34,-0.11,0.53,15.75,45.90,-34.95,28.3
2026/04/13 14:47:43.65,IMU,-29.79,-14.16,-984.86,-0.11,0.69,3.46,15.15,44.70,-35.70,28.2
2026/04/13 14:47:43.75,IMU,-34.67,3.42,-974.12,-1.68,-1.06,-0.82,13.50,43.50,-34.05,28.1
2026/04/13 14:47:43.85,IMU,-26.86,9.28,-977.54,0.71,-1.85,-0.49,14.85,44.55,-35.55,27.9
2026/04/13 14:47:43.95,IMU,-25.39,-2.44,-967.77,-2.58,-1.97,1.53,13.80,44.85,-34.80,28.1
2026/04/13 14:47:44.05,IMU,-38.57,-0.49,-976.56,1.28,-1.69,-1.95,16.05,46.05,-34.80,28.0
2026/04/13 14:47:44.15,IMU,-24.90,-3.91,-979.00,1.30,1.21,2.18,16.05,46.05,-35.85,28.2
2026/04/13 14:47:44.25,IMU,-24.41,-3.91,-974.12,-0.37,-3.25,3.17,14.55,45.30,-34.50,28.0
2026/04/13 14:47:44.35,IMU,-34.18,-5.86,-982.91,-0.34,1.40,2.37,15.30,43.80,-34.50,28.2
2026/04/13 14:47:44.45,IMU,-36.62,5.37,-979.49,0.66,-0.03,-2.08,13.95,46.65,-34.20,28.1
2026/04/13 14:47:44.55,IMU,-27.34,6.35,-984.38,-0.27,0.86,0.79,14.85,44.55,-33.75,28.1
2026/04/13 14:47:44.66,IMU,-33.20,-14.16,-971.19,-1.66,0.02,-1.71,14.25,45.60,-34.50,28.2
2026/04/13 14:47:44.76,IMU,-21.48,7.32,-975.10,-1.47,0.56,2.44,15.15,45.90,-34.20,28.3
2026/04/13 14:47:44.86,IMU,-30.27,-1.46,-981.45,1.13,-1.08,1.56,14.25,45.60,-34.50,28.3
2026/04/13 14:47:44.96,IMU,-29.30,5.86,-986.82,-1.12,-3.20,0.79,13.80,44.85,-35.10,27.9
2026/04/13 14:47:45.06,IMU,-36.13,9.77,-972.66,0.57,-0.54,-1.44,14.55,44.85,-33.30,28.2
2026/04/13 14:47:45.16,IMU,-27.83,3.42,-971.19,-1.30,-1.34,1.85,15.30,44.85,-34.80,28.1
2026/04/13 14:47:45.26,IMU,-18.07,-1.46,-970.70,-1.48,-1.66,-1.15,15.45,46.20,-34.95,28.0
2026/04/13 14:47:45.36,IMU,-21.97,-3.42,-974.12,-0.21,0.11,-0.59,15.60,45.30,-34.05,28.0
2026/04/13 14:47:45.46,IMU,-40.04,7.81,-979.49,0.45,-1.52,4.45,15.45,45.15,-34.20,28.2
2026/04/13 14:47:45.56,IMU,-37.11,-3.91,-973.14,1.92,-0.53,2.02,16.50,45.15,-35.25,28.2
2026/04/13 14:47:45.66,IMU,-25.88,-4.39,-978.03,-1.25,0.22,0.63,15.45,45.45,-34.20,28.0
2026/04/13 14:47:45.76,IMU,-26.86,-4.39,-982.42,-0.16,-3.55,-0.12,14.55,44.85,-34.50,27.8
2026/04/13 14:47:45.86,IMU,-43.46,-13.67,-974.61,-1.39,0.34,-0.43,15.60,45.30,-34.50,28.1
2026/04/13 14:47:45.97,IMU,-27.34,5.86,-982.42,0.11,-0.86,1.37,14.25,46.05,-34.50,28.2
2026/04/13 14:47:46.07,IMU,-30.27,3.91,-981.45,1.53,-0.99,1.42,14.70,43.20,-33.15,28.1
2026/04/13 14:47:46.17,IMU,-29.30,7.32,-978.03,-0.46,-1.38,-2.24,16.35,45.30,-34.05,28.2
2026/04/13 14:47:46.27,IMU,-39.06,-4.88,-988.77,-0.63,-1.28,0.40,13.65,45.45,-33.60,28.2
2026/04/13 14:47:46.37,IMU,-40.04,3.42,-974.61,-2.94,-3.08,1.88,14.70,45.45,-34.95,28.2
2026/04/13 14:47:46.47,IMU,-34.18,5.86,-978.52,-1.03,-2.57,2.99,15.45,45.15,-34.20,28.0
2026/04/13 14:47:46.57,IMU,-36.13,4.88,-983.40,0.36,0.98,-0.61,13.80,45.30,-34.05,28.2
2026/04/13 14:47:46.67,IMU,-30.27,4.88,-975.10,-1.05,-1.76,0.21,11.70,43.50,-31.95,28.2
2026/04/13 14:47:46.77,IMU,-25.88,-5.37,-975.10,-1.46,-0.23,1.42,14.70,42.90,-34.65,28.2
2026/04/13 14:47:46.87,IMU,-36.13,4.39,-976.07,-1.00,-0.67,-0.51,15.15,45.15,-34.65,27.9
2026/04/13 14:47:46.97,IMU,-31.25,-5.37,-977.05,0.29,-1.69,1.53,14.40,45.15,-35.25,28.2
2026/04/13 14:47:47.07,IMU,-34.67,0.49,-981.93,-0.34,0.21,0.88,13.50,45.60,-34.50,28.2
2026/04/13 14:47:47.17,IMU,-26.86,-8.79,-970.70,-0.63,-0.90,-2.19,14.40,44.40,-34.65,28.2
2026/04/13 14:47:47.28,IMU,-32.71,12.70,-975.59,-1.60,-2.50,-1.00,14.70,45.45,-34.95,28.3
2026/04/13 14:47:47.38,IMU,-38.57,-10.25,-977.05,1.48,0.58,-1.51,15.15,44.70,-35.25,28.1
2026/04/13 14:47:47.48,IMU,-33.20,-9.28,-989.26,0.88,-0.91,1.37,14.25,45.60,-34.50,28.2
2026/04/13 14:47:47.58,IMU,-33.20,-8.30,-978.03,0.78,1.73,1.11,15.45,45.45,-34.65,28.2
2026/04/13 14:47:47.68,IMU,-39.55,0.00,-972.66,-0.60,-0.82,0.66,11.55,40.65,-30.30,28.1
2026/04/13 14:47:47.78,IMU,-31.74,-4.39,-974.61,0.10,0.89,0.97,15.45,43.65,-34.95,28.1
2026/04/13 14:47:47.88,IMU,-29.30,-6.35,-970.21,-1.82,-0.32,0.53,15.30,44.25,-33.75,28.4
2026/04/13 14:47:47.98,IMU,-21.00,2.44,-975.10,1.56,0.24,-0.56,13.95,45.45,-34.20,28.1
2026/04/13 14:47:48.08,IMU,-26.86,4.88,-973.14,1.95,-3.24,-1.72,14.70,44.40,-35.25,27.9
2026/04/13 14:47:48.18,IMU,-32.71,-0.49,-979.98,-1.99,-2.60,-1.64,13.65,45.15,-34.95,27.9
2026/04/13 14:47:48.28,IMU,-41.02,-0.98,-991.21,-0.15,0.46,-1.47,14.40,44.40,-34.95,28.1
2026/04/13 14:47:48.38,IMU,-23.93,-5.86,-979.98,-0.31,-0.95,-0.28,15.45,45.45,-34.20,28.0
2026/04/13 14:47:48.48,IMU,-21.00,-2.44,-979.00,-0.46,-1.08,0.95,15.45,45.45,-33.90,28.2
2026/04/13 14:47:48.59,IMU,-28.32,-8.30,-976.56,-1.44,-0.43,-0.99,14.25,44.55,-34.05,28.0
2026/04/13 14:47:48.69,IMU,-35.64,3.91,-981.93,0.60,-0.90,2.77,14.55,46.05,-33.30,28.1
2026/04/13 14:47:48.79,IMU,-32.71,7.32,-976.07,-0.14,-1.14,-0.74,15.30,44.55,-34.50,28.1
2026/04/13 14:47:48.89,IMU,-21.97,-2.44,-982.42,-1.81,-2.05,1.64,15.15,43.65,-34.20,28.3
2026/04/13 14:47:48.99,IMU,-36.13,1.95,-975.59,-0.44,-0.02,2.02,14.55,44.55,-34.80,28.1
2026/04/13 14:47:49.09,IMU,-29.79,-11.23,-966.80,0.57,-1.63,1.27,16.35,46.05,-35.10,28.1
2026/04/13 14:47:49.19,IMU,-36.13,-6.84,-984.86,0.31,-1.75,-0.85,16.35,44.55,-34.05,28.2
2026/04/13 14:47:49.29,IMU,-21.00,10.74,-975.10,-0.44,0.19,-1.76,16.65,45.30,-35.10,28.3
2026/04/13 14:47:49.39,IMU,-34.67,5.86,-973.63,0.46,-0.43,-0.62,16.05,45.60,-33.75,28.3
2026/04/13 14:47:49.49,IMU,-37.11,-3.42,-984.38,-0.70,-1.55,0.31,15.15,46.65,-33.90,28.1
2026/04/13 14:47:49.59,IMU,-17.58,-9.77,-982.42,-0.18,-0.74,1.59,15.45,45.45,-34.95,28.0
2026/04/13 14:47:49.69,IMU,-38.57,5.86,-986.82,0.08,-0.02,-1.27,13.95,45.45,-34.65,28.1
2026/04/13 14:47:49.79,IMU,-28.81,1.46,-996.09,0.26,0.20,0.76,14.25,44.55,-34.80,28.0
2026/04/13 14:47:49.90,IMU,-29.30,-5.37,-979.00,-0.17,-0.64,3.57,14.40,45.15,-33.90,27.9
2026/04/13 14:47:50.00,IMU,-30.27,-14.65,-969.73,-1.49,-1.08,1.45,16.20,44.70,-35.70,28.1
2026/04/13 14:47:50.10,IMU,-30.27,-10.74,-988.28,-1.35,0.24,2.94,15.75,45.45,-35.25,28.1
2026/04/13 14:47:50.20,IMU,-32.23,-5.86,-979.98,-4.01,-2.14,1.26,15.15,45.90,-34.20,28.2
2026/04/13 14:47:50.30,IMU,-30.27,2.44,-977.05,0.55,-2.71,1.01,14.55,45.30,-34.05,28.2
2026/04/13 14:47:50.40,IMU,-41.50,-5.37,-963.38,-1.57,-0.51,-1.79,16.50,45.15,-34.65,28.0
2026/04/13 14:47:50.50,IMU,-27.34,-1.95,-967.77,-1.54,-0.48,-0.79,14.25,46.05,-35.55,28.3
2026/04/13 14:47:50.60,IMU,-22.46,-1.46,-988.28,-0.44,-2.11,-0.48,15.30,44.25,-34.05,28.0
2026/04/13 14:47:50.70,IMU,-27.83,1.95,-987.79,-1.13,2.84,1.73,15.45,44.70,-33.90,28.3
2026/04/13 14:47:50.80,IMU,-34.18,3.42,-978.52,1.07,-0.62,-0.31,15.45,45.45,-34.95,28.3
2026/04/13 14:47:50.90,IMU,-25.88,-0.98,-989.26,0.52,-2.62,1.48,15.60,46.05,-35.10,28.3
2026/04/13 14:47:51.00,IMU,-32.71,10.25,-974.61,-1.09,-1.31,-0.03,14.70,45.45,-34.65,28.0
2026/04/13 14:47:51.10,IMU,-26.86,-10.74,-979.00,-2.67,-1.85,-0.43,14.55,45.60,-33.75,28.2
2026/04/13 14:47:51.21,IMU,-36.13,2.93,-967.77,0.77,1.10,-0.91,15.30,44.85,-35.85,28.0
2026/04/13 14:47:51.31,IMU,-34.18,6.84,-973.14,-1.04,0.70,1.42,15.75,45.45,-34.65,28.1
2026/04/13 14:47:51.41,IMU,-41.02,-8.30,-982.91,-1.17,-2.06,-3.49,16.05,44.55,-34.50,27.9
2026/04/13 14:47:51.51,IMU,-38.09,-3.91,-985.84,-0.84,-2.46,-1.06,14.85,44.25,-33.75,28.2
2026/04/13 14:47:51.61,IMU,-37.60,-1.95,-979.49,-1.53,-0.24,-0.81,16.05,45.30,-34.50,28.0
2026/04/13 14:47:51.71,IMU,-33.69,1.95,-969.24,-1.25,-0.34,-0.37,12.60,46.20,-33.90,28.3
2026/04/13 14:47:51.81,IMU,-42.97,3.42,-973.14,-1.58,-1.11,-0.92,14.40,43.65,-35.25,28.2
2026/04/13 14:47:51.91,IMU,-27.83,-12.70,-976.07,-1.03,-1.99,0.11,15.15,45.15,-33.60,28.1
2026/04/13 14:47:52.01,IMU,-33.20,-10.25,-971.19,-0.95,-1.72,1.86,15.15,43.95,-35.25,28.0
2026/04/13 14:47:52.11,IMU,-35.64,7.32,-980.96,-1.64,-0.60,0.48,14.55,44.85,-33.30,28.2
2026/04/13 14:47:52.21,IMU,-28.81,6.35,-976.56,0.64,-1.87,3.08,14.85,44.85,-34.50,28.2
2026/04/13 14:47:52.31,IMU,-24.41,-1.46,-979.98,0.38,-0.42,-1.27,14.25,43.50,-35.55,28.0
2026/04/13 14:47:52.41,IMU,-26.86,-3.42,-974.12,-0.93,-2.66,2.58,15.60,45.60,-35.10,27.9
2026/04/13 14:47:52.51,IMU,-35.16,-14.65,-968.26,1.00,-1.00,2.87,16.05,44.25,-34.50,28.0
2026/04/13 14:47:52.62,IMU,-40.04,2.44,-968.75,-0.79,-2.17,-0.67,15.30,46.35,-33.30,28.0
2026/04/13 14:47:52.72,IMU,-23.93,-3.42,-973.14,-1.05,0.64,-1.79,14.40,45.15,-34.95,28.4
2026/04/13 14:47:52.82,IMU,-37.11,-1.46,-969.73,-0.34,-0.07,1.37,13.80,46.05,-33.75,27.9
2026/04/13 14:47:52.92,IMU,-20.02,0.00,-980.47,-0.47,1.46,0.92,13.50,44.55,-34.50,27.9
2026/04/13 14:47:53.02,IMU,-48.34,8.30,-970.70,0.40,-2.27,-1.54,13.80,45.30,-34.80,28.2
2026/04/13 14:47:53.12,IMU,-33.20,-1.46,-979.00,-0.05,-1.21,-0.56,13.80,45.60,-34.05,28.2
2026/04/13 14:47:53.22,IMU,-19.04,-6.84,-978.52,-1.09,-0.40,0.49,15.15,45.45,-35.70,27.9
2026/04/13 14:47:53.32,IMU,-37.60,-11.23,-975.10,-0.88,-0.92,-0.77,14.85,45.60,-33.75,28.2
2026/04/13 14:47:53.42,IMU,-29.30,13.18,-979.00,-0.99,-0.76,-1.15,14.55,45.30,-36.15,28.4
2026/04/13 14:47:53.52,IMU,-19.04,5.86,-972.17,-1.27,-1.52,1.44,14.25,46.35,-34.05,28.1
2026/04/13 14:47:53.62,IMU,-26.37,-7.32,-974.61,-0.18,-0.95,1.02,14.85,44.55,-34.80,28.4
2026/04/13 14:47:53.72,IMU,-30.76,-2.44,-978.52,1.05,-0.51,1.95,15.15,45.90,-34.65,28.4
2026/04/13 14:47:53.82,IMU,-40.53,-2.44,-973.63,-0.54,-1.44,1.75,11.70,41.55,-29.55,28.1
2026/04/13 14:47:53.92,IMU,-30.27,-3.42,-978.03,-0.33,0.48,-4.00,15.15,44.70,-34.95,28.4
2026/04/13 14:47:54.03,IMU,-40.04,-7.32,-982.91,1.98,2.90,-2.28,15.45,45.45,-34.65,27.8
2026/04/13 14:47:54.13,IMU,-36.13,6.84,-969.24,-0.58,-1.51,-1.38,14.70,45.45,-33.15,27.8
2026/04/13 14:47:54.23,IMU,-38.57,-3.91,-976.56,-0.95,0.26,-2.08,14.70,44.40,-33.60,28.2
2026/04/13 14:47:54.33,IMU,-30.76,-8.79,-972.17,0.43,-0.74,-1.69,15.75,44.70,-35.25,28.3
2026/04/13 14:47:54.43,IMU,-26.37,-10.25,-980.47,-0.69,-2.56,0.42,14.70,45.15,-34.65,28.0
2026/04/13 14:47:54.53,IMU,-35.16,-3.91,-977.05,-1.27,-0.36,0.66,15.15,45.15,-34.20,28.1
2026/04/13 14:47:54.63,IMU,-36.13,2.93,-976.56,-0.58,2.37,-1.92,13.95,45.15,-34.95,28.3
2026/04/13 14:47:54.73,IMU,-39.06,-7.32,-971.19,0.08,-1.79,2.44,13.95,45.45,-34.20,28.3
2026/04/13 14:47:54.85,IMU,-36.13,0.49,-987.79,-0.38,0.63,-1.34,10.20,43.50,-29.55,28.3
2026/04/13 14:47:54.95,IMU,-38.57,-9.28,-973.63,0.12,2.02,0.73,16.05,46.05,-34.80,27.8
2026/04/13 14:47:55.05,IMU,-43.95,0.98,-977.54,-0.14,-2.92,1.79,14.70,45.90,-34.65,28.2
2026/04/13 14:47:55.15,IMU,-31.74,-2.93,-989.26,-0.95,0.35,1.28,15.75,45.45,-34.20,28.2
2026/04/13 14:47:55.25,IMU,-48.34,0.00,-970.21,0.07,0.73,1.36,14.85,45.60,-33.30,28.0
2026/04/13 14:47:55.35,IMU,-27.83,-0.49,-983.89,0.79,-0.58,-0.36,13.50,44.85,-33.75,28.0
2026/04/13 14:47:55.45,IMU,-27.34,-7.32,-970.70,1.51,-0.73,-1.40,13.95,44.70,-34.20,28.1
2026/04/13 14:47:55.55,IMU,-33.20,3.42,-983.89,-0.75,-3.56,-0.43,14.85,44.85,-33.75,28.4
2026/04/13 14:47:55.65,IMU,-37.60,-4.39,-987.30,-1.63,-1.43,0.02,16.05,45.60,-32.70,28.2
2026/04/13 14:47:55.75,IMU,-41.99,0.49,-974.12,-0.82,0.61,0.72,15.15,45.15,-33.90,28.1
2026/04/13 14:47:55.85,IMU,-38.09,-4.88,-977.54,-0.20,1.85,2.71,14.85,44.85,-35.10,28.2
2026/04/13 14:47:55.95,IMU,-41.99,2.44,-974.61,-2.02,-2.60,-0.30,14.25,44.55,-34.50,27.9
2026/04/13 14:47:56.05,IMU,-26.37,-3.91,-970.70,-1.83,-1.97,-2.44,13.80,45.60,-33.75,28.2
2026/04/13 14:47:56.16,IMU,-37.60,4.39,-978.52,-0.74,-1.78,2.15,14.70,44.70,-33.60,28.0
2026/04/13 14:47:56.26,IMU,-28.32,0.00,-972.17,-2.08,-1.25,0.13,15.15,45.15,-34.95,28.2
2026/04/13 14:47:56.36,IMU,-35.64,0.49,-970.21,-2.57,-0.24,-0.50,15.30,44.85,-33.75,28.1
2026/04/13 14:47:56.46,IMU,-29.79,-5.37,-981.93,-0.59,-0.18,0.57,14.40,45.90,-34.65,27.8
2026/04/13 14:47:56.56,IMU,-34.18,-14.65,-973.63,-0.08,-0.18,-0.21,14.55,44.55,-34.05,28.2
2026/04/13 14:47:56.66,IMU,-33.20,-4.88,-978.52,0.08,-2.68,0.14,14.85,46.05,-35.55,28.3
2026/04/13 14:47:56.76,IMU,-28.81,9.28,-979.00,-0.78,-0.10,3.02,15.45,46.20,-34.65,28.0
2026/04/13 14:47:56.86,IMU,-28.81,-3.91,-978.03,-0.27,-2.58,0.84,15.45,45.15,-35.25,28.0
2026/04/13 14:47:56.96,IMU,-24.90,-5.86,-963.38,-0.33,-2.15,3.21,14.40,45.15,-34.95,28.0
2026/04/13 14:47:57.06,IMU,-28.81,-6.35,-971.68,-1.00,0.64,-0.53,13.65,44.40,-34.95,28.2
2026/04/13 14:47:57.16,IMU,-31.25,-9.77,-979.49,-1.02,0.34,-0.48,14.70,43.95,-35.25,28.3
2026/04/13 14:47:57.26,IMU,-38.09,-3.42,-966.31,-1.34,-0.30,0.03,15.30,44.85,-34.50,28.1
2026/04/13 14:47:57.36,IMU,-29.79,-2.44,-975.10,-1.88,-1.47,0.65,13.95,46.65,-34.20,28.0
2026/04/13 14:47:57.46,IMU,-26.86,-15.14,-977.54,-0.95,0.24,2.05,14.55,44.85,-33.00,27.9
2026/04/13 14:47:57.57,IMU,-30.76,-1.95,-977.05,0.85,0.77,0.13,14.70,44.40,-36.00,28.1
2026/04/13 14:47:57.67,IMU,-27.83,-11.72,-964.36,-0.79,-2.63,-0.74,14.85,45.30,-33.75,28.0
2026/04/13 14:47:57.77,IMU,-28.32,1.46,-968.26,-1.66,-0.28,0.06,13.35,45.90,-34.20,28.0
2026/04/13 14:47:57.87,IMU,-32.71,-10.74,-980.96,0.89,0.36,2.05,14.40,43.95,-34.20,28.0
2026/04/13 14:47:57.97,IMU,-31.74,0.98,-976.56,-1.84,-2.00,-2.50,14.85,46.05,-34.80,28.2
2026/04/13 14:47:58.07,IMU,-28.32,-5.86,-976.56,-0.68,-1.59,3.21,13.65,45.90,-34.20,28.0
2026/04/13 14:47:58.17,IMU,-38.09,4.88,-973.63,-1.39,0.31,2.44,15.45,45.90,-33.15,28.1
2026/04/13 14:47:58.27,IMU,-30.27,-8.30,-980.96,-1.53,-3.03,0.96,13.65,45.15,-35.70,28.1
2026/04/13 14:47:58.37,IMU,-42.97,0.49,-978.03,0.56,0.52,-1.18,16.20,45.90,-36.75,28.1
2026/04/13 14:47:58.47,IMU,-37.11,5.86,-980.96,0.22,-1.78,-1.10,14.70,45.15,-34.95,28.2
2026/04/13 14:47:58.57,IMU,-30.76,-6.35,-971.68,-1.01,-1.68,2.24,14.40,43.95,-34.20,28.2
2026/04/13 14:47:58.67,IMU,-31.25,-11.72,-971.19,-2.63,0.69,1.01,15.45,45.45,-36.00,28.0
2026/04/13 14:47:58.77,IMU,-39.06,-4.88,-974.61,-1.05,0.95,-0.89,16.05,45.30,-34.05,27.9
2026/04/13 14:47:58.88,IMU,-38.09,1.46,-977.05,-0.11,-2.11,0.50,14.70,45.45,-33.90,27.8
2026/04/13 14:47:58.98,IMU,-19.53,0.98,-973.14,-2.67,-2.15,-1.60,16.05,43.05,-35.55,28.1
2026/04/13 14:47:59.08,IMU,-40.53,4.39,-968.26,-0.05,0.41,-1.85,14.25,46.35,-34.05,27.8
2026/04/13 14:47:59.18,IMU,-25.39,0.49,-976.07,-1.89,0.43,0.63,15.15,44.40,-34.20,28.5
2026/04/13 14:47:59.28,IMU,-37.60,6.84,-974.61,-0.60,-0.68,-0.47,15.30,45.60,-34.80,28.0
2026/04/13 14:47:59.38,IMU,-27.34,4.88,-971.19,-1.69,-1.97,2.27,13.50,45.60,-34.80,28.0
2026/04/13 14:47:59.48,IMU,-40.04,-3.42,-980.96,-0.45,-1.61,-2.63,14.85,46.05,-34.50,28.0
2026/04/13 14:47:59.58,IMU,-29.30,-11.72,-976.56,-0.51,-1.46,-0.56,14.55,45.30,-34.50,28.0
2026/04/13 14:47:59.68,IMU,-31.74,-1.46,-975.10,-1.33,-0.82,0.04,15.45,44.70,-35.25,28.2
2026/04/13 14:47:59.78,IMU,-27.34,-6.35,-979.98,-0.01,1.10,0.67,15.45,46.20,-34.80,28.0
2026/04/13 14:47:59.88,IMU,-35.64,-9.28,-982.42,-1.36,-3.15,-1.68,14.85,44.55,-35.55,28.2
2026/04/13 14:47:59.98,IMU,-43.95,-0.49,-979.49,0.24,-2.08,-2.02,15.45,45.90,-35.25,28.2
2026/04/13 14:48:00.08,IMU,-29.30,-1.95,-970.21,-0.79,-1.27,-0.92,14.40,45.15,-34.65,28.0
2026/04/13 14:48:00.18,IMU,-29.30,-0.49,-969.24,-0.08,-0.53,1.44,16.65,44.85,-34.50,28.2
2026/04/13 14:48:00.29,IMU,-35.64,1.46,-970.70,-0.56,-0.77,-2.45,14.40,46.20,-34.65,28.0
2026/04/13 14:48:00.39,IMU,-39.06,2.44,-979.00,-1.18,1.59,2.09,14.55,44.85,-33.75,28.0
2026/04/13 14:48:00.49,IMU,-42.97,2.44,-977.54,0.86,-1.21,0.79,14.85,45.30,-34.80,28.0
2026/04/13 14:48:00.59,IMU,-31.74,-4.39,-983.89,-1.85,0.22,2.82,14.25,44.25,-34.05,28.2
2026/04/13 14:48:00.69,IMU,-33.69,7.81,-988.28,-1.58,-1.77,-1.77,14.40,44.70,-34.65,28.0
2026/04/13 14:48:00.79,IMU,-36.62,-20.02,-974.61,0.18,0.60,-0.78,14.70,43.65,-33.90,28.1
2026/04/13 14:48:00.89,IMU,-34.67,3.42,-979.98,0.63,-0.95,-0.08,15.15,44.40,-34.95,28.2
2026/04/13 14:48:00.99,IMU,-38.09,2.44,-981.93,-0.39,0.47,2.15,12.60,43.95,-31.35,28.1
2026/04/13 14:48:01.09,IMU,-38.57,0.00,-974.12,-0.53,-0.82,2.86,15.60,45.60,-35.55,28.0
2026/04/13 14:48:01.19,IMU,-32.23,-5.37,-973.14,0.14,-1.65,0.47,17.25,45.15,-34.20,28.2
2026/04/13 14:48:01.29,IMU,-23.93,5.37,-975.10,-2.48,-1.24,-0.38,14.70,45.45,-36.00,28.2
2026/04/13 14:48:01.39,IMU,-31.25,2.44,-976.07,-0.01,-1.05,0.65,16.65,44.55,-34.80,28.2
2026/04/13 14:48:01.49,IMU,-34.18,-1.46,-980.96,-1.73,-0.58,-0.53,15.30,45.30,-34.50,28.0
2026/04/13 14:48:01.60,IMU,-36.13,1.95,-979.98,0.52,-3.73,1.14,15.15,45.15,-34.65,28.2
2026/04/13 14:48:01.70,IMU,-40.04,-0.49,-977.05,-1.27,-0.33,0.02,13.80,46.05,-34.80,28.0
2026/04/13 14:48:01.80,IMU,-29.79,15.14,-969.73,-1.00,-2.98,0.44,15.75,44.70,-35.25,28.0
2026/04/13 14:48:01.90,IMU,-33.20,0.00,-974.12,-1.27,-0.95,-0.70,15.45,44.70,-34.95,28.0
2026/04/13 14:48:02.01,IMU,-23.44,1.95,-979.49,-2.67,0.79,2.38,10.35,42.15,-30.00,28.0
2026/04/13 14:48:02.11,IMU,-27.83,-0.49,-958.98,-0.33,-3.18,1.36,15.30,45.60,-34.80,28.1
2026/04/13 14:48:02.21,IMU,-32.71,0.49,-970.21,-0.92,-2.30,0.75,14.40,45.90,-34.20,28.2
2026/04/13 14:48:02.31,IMU,-31.74,-0.98,-969.24,0.44,-0.87,-1.90,14.85,45.30,-33.30,28.0
2026/04/13 14:48:02.42,IMU,-44.92,16.60,-979.98,-1.47,-0.30,2.98,14.85,44.85,-34.50,28.1
2026/04/13 14:48:02.52,IMU,-31.74,4.39,-978.03,-0.68,0.41,0.75,14.70,46.20,-33.60,27.8
2026/04/13 14:48:02.62,IMU,-31.25,-4.39,-980.47,-0.98,-1.53,1.50,14.85,45.30,-33.30,27.9
2026/04/13 14:48:02.72,IMU,-29.30,0.98,-981.45,0.53,-0.76,0.70,15.45,44.70,-33.90,28.2
2026/04/13 14:48:02.82,IMU,-31.74,1.46,-981.45,-0.68,-0.83,1.07,14.70,45.45,-33.90,28.2
2026/04/13 14:48:02.92,IMU,-19.53,1.46,-971.68,-3.11,-0.44,1.83,13.35,44.70,-33.90,28.0
2026/04/13 14:48:03.02,IMU,-35.16,-8.30,-993.16,0.09,-1.18,0.95,14.40,44.70,-36.00,28.2
2026/04/13 14:48:03.12,IMU,-26.86,-1.95,-973.14,-0.13,0.92,0.94,14.85,45.30,-35.55,28.3
2026/04/13 14:48:03.22,IMU,-45.90,-17.58,-984.38,-0.02,-0.75,-1.50,13.95,45.90,-34.65,28.0
2026/04/13 14:48:03.32,IMU,-31.25,10.25,-981.45,-2.50,-2.80,1.86,14.40,45.45,-33.90,28.1
2026/04/13 14:48:03.42,IMU,-25.88,0.49,-973.14,-0.89,0.97,0.51,15.15,43.95,-33.90,28.2
2026/04/13 14:48:03.52,IMU,-36.62,9.77,-982.91,-1.82,-0.92,1.71,15.45,45.45,-32.85,27.9
2026/04/13 14:48:03.62,IMU,-30.76,-14.16,-967.29,0.88,-1.40,1.32,16.05,46.80,-35.10,28.2
2026/04/13 14:48:03.72,IMU,-27.34,-3.42,-972.66,0.16,1.34,0.50,15.45,45.90,-33.60,28.0
2026/04/13 14:48:03.83,IMU,-34.18,0.49,-975.59,-0.43,-0.48,1.53,15.60,46.35,-33.30,27.7
2026/04/13 14:48:03.93,IMU,-35.64,4.88,-971.19,-2.24,-1.21,1.60,13.95,45.90,-34.65,28.0
2026/04/13 14:48:04.03,IMU,-23.44,-6.84,-974.61,-0.56,-2.85,2.04,14.85,44.85,-35.10,28.1
2026/04/13 14:48:04.13,IMU,-34.67,-6.35,-983.40,-2.17,-0.59,2.22,15.75,44.40,-34.20,28.2
2026/04/13 14:48:04.23,IMU,-28.32,-4.39,-978.52,-2.31,-2.56,-0.71,13.50,46.05,-34.05,28.1
2026/04/13 14:48:04.33,IMU,-40.04,0.00,-982.42,0.73,-1.41,0.28,14.70,44.70,-33.15,28.0
2026/04/13 14:48:04.43,IMU,-36.62,-11.23,-974.61,0.23,0.81,-0.49,15.15,45.15,-34.95,28.0
2026/04/13 14:48:04.53,IMU,-39.06,8.30,-981.93,-1.96,-2.23,2.82,14.85,46.05,-33.75,28.0
2026/04/13 14:48:04.63,IMU,-37.11,9.28,-981.93,-2.74,0.12,-1.51,14.70,45.90,-33.90,28.2
2026/04/13 14:48:04.73,IMU,-26.86,7.81,-985.84,-0.53,0.31,1.83,14.40,44.40,-34.20,28.4
2026/04/13 14:48:04.83,IMU,-32.71,-1.95,-968.75,-1.24,1.69,0.62,14.55,44.85,-33.30,28.0
2026/04/13 14:48:04.93,IMU,-48.83,1.46,-979.49,1.16,-0.57,-0.40,15.15,44.70,-34.95,28.4
2026/04/13 14:48:05.03,IMU,-32.23,1.95,-967.29,-1.87,-1.26,0.41,14.70,43.65,-34.65,28.2
2026/04/13 14:48:05.14,IMU,-29.79,-5.37,-964.84,-2.08,-0.62,-1.81,13.95,45.90,-34.20,28.1
2026/04/13 14:48:05.24,IMU,-29.30,-5.37,-975.59,0.06,-1.63,0.32,13.65,45.90,-34.65,28.0
2026/04/13 14:48:05.34,IMU,-29.79,-3.91,-973.63,0.01,-1.88,1.14,14.85,45.30,-35.85,28.2
2026/04/13 14:48:05.44,IMU,-47.85,0.98,-974.12,-0.64,0.83,1.29,14.40,44.70,-34.95,27.8
2026/04/13 14:48:05.54,IMU,-37.60,-10.25,-970.21,-0.16,-0.59,1.00,15.75,45.15,-34.65,28.2
2026/04/13 14:48:05.64,IMU,-30.76,9.77,-974.61,-1.50,-0.28,-0.31,15.15,44.70,-33.90,27.8
2026/04/13 14:48:05.74,IMU,-34.67,-0.98,-965.82,-0.49,-3.62,1.35,14.25,45.30,-35.85,28.2
2026/04/13 14:48:05.84,IMU,-40.53,-4.39,-974.61,-0.50,-0.06,1.63,15.15,45.15,-34.20,28.0
2026/04/13 14:48:05.94,IMU,-30.76,3.91,-977.05,-0.91,-0.34,1.82,15.75,43.95,-33.90,27.9
2026/04/13 14:48:06.04,IMU,-35.64,-4.39,-980.96,-0.23,-1.28,0.05,13.95,44.40,-34.95,28.0
2026/04/13 14:48:06.14,IMU,-41.02,4.39,-979.00,-1.08,-2.18,1.48,14.25,44.85,-34.05,28.1
2026/04/13 14:48:06.24,IMU,-20.02,-3.42,-968.26,-2.25,-0.64,0.78,14.85,45.30,-33.75,28.3
2026/04/13 14:48:06.34,IMU,-33.20,-1.46,-973.14,-0.98,-1.20,1.96,16.05,44.55,-34.50,28.2
2026/04/13 14:48:06.44,IMU,-29.79,-1.46,-982.42,-0.31,-2.04,0.76,13.80,46.05,-34.50,28.3
2026/04/13 14:48:06.55,IMU,-30.27,-1.95,-978.03,-0.91,-1.53,0.94,13.50,45.30,-34.05,28.0
2026/04/13 14:48:06.65,IMU,-36.13,-2.44,-961.91,-0.74,-2.17,-1.22,15.60,45.30,-34.50,28.2
2026/04/13 14:48:06.75,IMU,-23.93,-16.11,-970.21,1.31,-1.86,2.18,15.15,43.95,-35.70,27.9
2026/04/13 14:48:06.85,IMU,-24.90,-9.28,-967.29,-1.17,-1.38,2.38,13.95,43.95,-34.65,28.1
2026/04/13 14:48:06.95,IMU,-32.23,6.35,-974.12,-0.99,-2.19,3.80,13.95,45.15,-34.65,27.9
2026/04/13 14:48:07.05,IMU,-36.13,4.39,-970.70,-0.76,-1.06,0.77,13.95,45.45,-34.20,28.0
2026/04/13 14:48:07.15,IMU,-23.93,-0.98,-980.96,0.35,0.02,0.54,14.70,46.65,-33.90,27.7
2026/04/13 14:48:07.25,IMU,-27.83,10.74,-971.68,-0.12,-0.24,0.30,15.30,45.30,-33.30,28.0
2026/04/13 14:48:07.35,IMU,-46.88,3.42,-971.68,0.49,1.37,0.40,14.55,45.30,-34.80,27.9
2026/04/13 14:48:07.45,IMU,-27.83,1.95,-972.17,-0.11,-1.88,0.63,14.85,46.05,-33.75,28.2
2026/04/13 14:48:07.55,IMU,-24.90,9.77,-971.68,0.11,-0.02,-0.50,14.40,45.45,-33.60,28.0
2026/04/13 14:48:07.65,IMU,-30.76,-16.11,-974.61,-2.60,-0.52,-0.91,15.30,44.25,-35.55,28.0
2026/04/13 14:48:07.75,IMU,-35.64,-0.98,-969.24,-1.00,-0.33,1.32,15.60,44.85,-35.55,28.1
2026/04/13 14:48:07.86,IMU,-17.09,3.42,-961.91,-0.92,-0.11,1.66,16.05,44.85,-34.80,28.2
2026/04/13 14:48:07.96,IMU,-32.71,4.39,-981.93,1.37,-1.24,3.08,15.30,44.85,-33.30,28.0
2026/04/13 14:48:08.06,IMU,-31.25,2.93,-975.59,-1.85,-0.21,2.37,13.80,45.30,-33.75,28.0
2026/04/13 14:48:08.16,IMU,-41.50,0.49,-972.66,-2.74,-3.29,-0.93,12.15,41.40,-30.00,27.9
2026/04/13 14:48:08.26,IMU,-17.09,-4.88,-973.63,-1.08,0.33,-0.91,14.70,44.70,-34.65,28.0
2026/04/13 14:48:08.36,IMU,-27.83,4.88,-960.94,-1.99,-1.50,0.80,13.80,46.05,-32.70,28.0
2026/04/13 14:48:08.46,IMU,-28.81,-8.30,-969.73,-1.95,-0.01,2.14,16.50,43.95,-33.60,27.8
2026/04/13 14:48:08.56,IMU,-43.95,9.77,-994.63,-1.05,0.59,-1.19,14.85,44.85,-33.75,28.0
2026/04/13 14:48:08.66,IMU,-22.46,-4.88,-964.36,-0.94,-1.73,2.95,15.30,44.55,-34.50,28.0
2026/04/13 14:48:08.76,IMU,-40.53,-2.44,-969.73,0.06,0.93,0.96,14.70,45.45,-33.60,27.9
2026/04/13 14:48:08.86,IMU,-25.39,-4.39,-975.59,-0.76,-1.51,1.45,14.70,44.70,-34.20,28.3
2026/04/13 14:48:08.96,IMU,-31.74,-4.39,-978.52,0.83,-2.03,0.69,14.40,42.90,-34.65,28.3
2026/04/13 14:48:09.06,IMU,-37.60,-0.98,-968.26,-0.51,-0.06,0.63,14.40,45.45,-33.60,28.1
2026/04/13 14:48:09.16,IMU,-27.34,2.44,-973.14,-0.66,-1.57,-0.10,15.45,45.15,-34.20,28.0
2026/04/13 14:48:09.27,IMU,-32.23,-0.49,-983.89,-2.19,0.12,-0.42,15.60,45.60,-34.05,28.0
2026/04/13 14:48:09.37,IMU,-34.18,-5.37,-971.68,-1.42,-1.47,-4.79,14.25,44.85,-33.75,28.1
2026/04/13 14:48:09.47,IMU,-31.74,1.95,-982.42,-0.34,0.01,-0.37,15.30,44.55,-34.50,28.2
2026/04/13 14:48:09.57,IMU,-21.48,-1.46,-985.84,-0.47,-2.72,0.77,14.70,45.45,-34.20,28.1
2026/04/13 14:48:09.67,IMU,-31.74,8.79,-973.63,-0.73,-0.87,-0.58,14.85,45.60,-34.05,28.0
2026/04/13 14:48:09.77,IMU,-44.43,14.16,-969.73,-2.76,0.11,2.56,14.85,45.30,-35.10,27.8
2026/04/13 14:48:09.87,IMU,-30.27,-0.98,-978.03,-1.53,-1.85,1.81,16.65,44.85,-34.80,27.8
2026/04/13 14:48:09.97,IMU,-36.13,-14.65,-968.75,-2.11,0.40,2.12,14.25,46.05,-34.50,27.8
2026/04/13 14:48:10.07,IMU,-28.81,-2.44,-974.61,-0.68,0.42,-0.26,14.85,43.80,-34.50,27.8
2026/04/13 14:48:10.17,IMU,-29.30,-6.35,-971.68,-0.99,-0.75,-2.58,14.55,44.85,-35.10,28.1
2026/04/13 14:48:10.27,IMU,-40.04,-5.86,-963.87,-1.48,-3.53,1.37,16.20,44.70,-34.95,27.8
2026/04/13 14:48:10.37,IMU,-26.86,8.30,-984.86,-2.75,-1.31,0.56,14.70,44.70,-33.90,28.2
2026/04/13 14:48:10.47,IMU,-41.99,-4.39,-985.84,-1.62,-2.40,0.47,15.15,45.45,-34.20,28.0
2026/04/13 14:48:10.58,IMU,-29.30,-1.95,-977.05,-2.22,-2.27,-0.08,14.55,46.80,-34.50,28.3
2026/04/13 14:48:10.68,IMU,-32.71,5.37,-978.03,-0.98,0.08,-0.46,15.15,44.40,-34.65,28.0
2026/04/13 14:48:10.78,IMU,-41.50,-12.70,-972.66,-1.16,-0.24,-0.47,14.40,45.90,-35.70,28.0
2026/04/13 14:48:10.88,IMU,-41.50,-2.44,-977.05,-0.34,-0.78,-1.54,15.15,45.15,-34.20,28.0
2026/04/13 14:48:10.98,IMU,-41.02,-14.16,-974.61,-1.41,0.88,0.53,16.05,45.60,-34.05,28.1
2026/04/13 14:48:11.08,IMU,-37.11,-16.11,-968.26,-1.74,0.18,-0.56,15.30,44.85,-34.50,28.0
2026/04/13 14:48:11.18,IMU,-35.16,15.14,-979.00,-0.42,-1.95,-2.81,13.80,46.35,-34.80,28.0
2026/04/13 14:48:11.28,IMU,-37.60,-3.42,-982.42,1.31,0.64,1.38,14.70,45.15,-35.25,28.0
2026/04/13 14:48:11.38,IMU,-32.71,3.42,-971.19,-2.61,-0.15,0.62,16.05,44.85,-34.80,28.0
2026/04/13 14:48:11.48,IMU,-28.32,0.00,-973.63,-1.08,-0.34,2.67,15.15,45.15,-33.60,28.0
2026/04/13 14:48:11.58,IMU,-33.20,-8.79,-979.49,0.97,3.04,1.85,15.45,45.15,-35.25,28.3
2026/04/13 14:48:11.68,IMU,-32.23,-4.39,-977.05,0.56,1.58,-1.89,16.20,45.15,-34.65,28.4
2026/04/13 14:48:11.78,IMU,-36.62,5.86,-983.40,0.42,-1.48,0.78,15.75,44.40,-34.95,28.2
2026/04/13 14:48:11.88,IMU,-37.11,-5.86,-988.28,-2.79,-0.82,-2.09,13.95,44.70,-35.25,28.2
2026/04/13 14:48:11.99,IMU,-40.53,16.60,-978.03,-1.43,-1.83,-0.74,15.15,44.40,-35.25,28.3
2026/04/13 14:48:12.09,IMU,-36.13,-1.46,-983.40,-0.93,0.85,1.03,14.55,44.85,-34.80,28.1
2026/04/13 14:48:12.19,IMU,-36.13,0.98,-984.38,-0.80,-0.99,3.08,14.25,44.55,-33.75,28.0
2026/04/13 14:48:12.29,IMU,-33.20,5.37,-976.56,-2.29,-1.18,-0.72,14.85,44.25,-33.75,28.1
2026/04/13 14:48:12.39,IMU,-40.53,-3.42,-974.61,-2.30,-0.18,1.20,15.60,45.30,-33.75,28.0
2026/04/13 14:48:12.49,IMU,-29.30,-2.44,-968.75,-0.36,-0.79,-0.87,14.55,46.05,-34.50,27.9
2026/04/13 14:48:12.59,IMU,-38.09,1.95,-979.49,-2.55,-2.95,2.66,13.05,44.85,-34.80,28.1
2026/04/13 14:48:12.69,IMU,-28.32,7.81,-980.47,-0.95,-2.07,4.02,13.95,44.70,-34.20,28.1
2026/04/13 14:48:12.79,IMU,-30.27,-17.09,-963.38,-0.52,-2.44,0.89,14.55,45.30,-35.10,28.0
2026/04/13 14:48:12.89,IMU,-32.71,-4.39,-994.14,-1.02,0.16,1.76,14.55,44.85,-34.80,28.0
2026/04/13 14:48:12.99,IMU,-38.09,-6.84,-973.63,0.22,-0.86,-2.31,15.60,46.05,-33.75,28.0
2026/04/13 14:48:13.09,IMU,-34.18,0.49,-964.36,-2.13,0.29,2.92,15.30,44.85,-33.75,27.8
2026/04/13 14:48:13.19,IMU,-34.67,0.00,-979.98,-0.44,-0.79,2.90,15.15,45.45,-33.90,28.1
2026/04/13 14:48:13.30,IMU,-44.92,-3.91,-1004.39,-0.45,0.05,-0.22,14.25,46.05,-33.75,28.3
2026/04/13 14:48:13.40,IMU,-34.67,8.30,-984.38,-1.18,-2.13,0.79,14.85,45.30,-34.05,28.0
2026/04/13 14:48:13.50,IMU,-37.11,8.30,-978.03,0.11,-0.06,2.39,15.75,45.90,-34.95,28.1
2026/04/13 14:48:13.60,IMU,-42.48,13.18,-979.00,-0.63,-1.37,1.39,13.80,44.55,-34.50,28.1
2026/04/13 14:48:13.70,IMU,-30.27,-2.44,-983.40,-1.98,-0.59,-1.34,14.55,45.30,-35.10,28.2
2026/04/13 14:48:13.80,IMU,-44.43,2.93,-979.49,-1.22,-0.15,0.11,13.95,44.70,-35.25,27.8
2026/04/13 14:48:13.90,IMU,-45.90,9.77,-976.07,-0.95,-1.69,-0.24,15.15,44.70,-33.60,28.0
2026/04/13 14:48:14.00,IMU,-36.13,6.35,-982.42,-1.93,0.51,-0.66,16.20,45.15,-35.25,28.0
2026/04/13 14:48:14.10,IMU,-40.53,-8.79,-979.49,1.08,-2.57,-1.24,14.25,45.60,-34.05,28.1
2026/04/13 14:48:14.20,IMU,-32.71,-6.35,-981.45,0.78,-2.36,-1.23,14.70,44.70,-33.15,28.0
2026/04/13 14:48:14.30,IMU,-41.50,3.42,-985.35,-0.75,0.51,2.01,11.70,42.30,-28.80,28.1
2026/04/13 14:48:14.40,IMU,-37.11,-3.91,-971.68,-1.89,-0.96,0.50,14.25,46.05,-34.80,28.0
2026/04/13 14:48:14.51,IMU,-25.39,-1.46,-973.63,-1.43,-0.44,0.34,14.70,44.40,-34.95,28.1
2026/04/13 14:48:14.61,IMU,-26.37,-0.49,-975.10,-0.74,-2.13,-1.29,14.85,45.60,-34.05,28.0
2026/04/13 14:48:14.71,IMU,-44.92,7.32,-972.17,-1.45,-2.15,-0.48,14.25,43.80,-33.30,28.2
2026/04/13 14:48:14.81,IMU,-33.20,-1.95,-969.73,-1.97,1.76,1.11,15.60,45.60,-33.75,28.2
2026/04/13 14:48:14.91,IMU,-32.71,-4.88,-980.96,-0.33,0.83,-1.34,16.05,46.35,-34.80,28.0
2026/04/13 14:48:15.01,IMU,-36.13,-2.93,-977.54,-0.34,1.05,-2.16,15.45,44.70,-34.65,28.0
2026/04/13 14:48:15.11,IMU,-33.20,-5.37,-968.26,0.13,-0.50,2.09,15.30,45.60,-34.05,27.7
2026/04/13 14:48:15.21,IMU,-35.16,0.98,-987.30,-1.84,-2.35,1.53,14.40,44.70,-34.65,28.0
2026/04/13 14:48:15.31,IMU,-32.71,3.42,-976.07,-1.47,1.74,1.08,13.80,44.85,-34.50,28.2
2026/04/13 14:48:15.41,IMU,-37.60,2.44,-968.26,-1.38,-2.47,0.56,14.40,45.15,-34.20,28.0
2026/04/13 14:48:15.51,IMU,-32.23,-0.49,-974.12,-1.68,1.77,0.47,14.85,45.30,-34.50,27.8
2026/04/13 14:48:15.61,IMU,-36.13,-0.49,-978.52,-0.54,-0.37,2.08,14.85,45.60,-34.05,28.0
2026/04/13 14:48:15.71,IMU,-30.27,-2.93,-972.66,-0.40,1.34,-0.06,15.60,46.05,-33.75,28.2
2026/04/13 14:48:15.81,IMU,-36.13,-14.65,-980.96,-1.03,-0.58,0.47,14.70,45.45,-34.95,28.2
2026/04/13 14:48:15.92,IMU,-30.76,-1.95,-973.63,1.01,-2.41,0.50,14.85,44.55,-34.80,28.0
2026/04/13 14:48:16.02,IMU,-39.06,-5.86,-979.00,-0.81,0.21,1.48,14.85,45.30,-35.55,28.0
2026/04/13 14:48:16.12,IMU,-35.16,3.42,-967.29,-0.73,-1.96,-0.10,15.45,44.40,-34.95,28.2
2026/04/13 14:48:16.22,IMU,-26.37,-15.14,-975.59,-0.73,-0.57,-1.39,15.45,45.90,-34.65,27.9
2026/04/13 14:48:16.32,IMU,-30.76,4.88,-970.70,-1.35,-0.65,-1.56,14.40,45.45,-35.25,28.2
2026/04/13 14:48:16.42,IMU,-41.50,13.67,-978.03,-1.19,-1.08,0.67,16.20,44.70,-34.95,28.1
2026/04/13 14:48:16.52,IMU,-41.02,-9.28,-971.19,-2.17,-0.41,0.56,14.70,45.15,-34.65,27.7
2026/04/13 14:48:16.62,IMU,-30.76,1.95,-977.05,-0.73,-1.26,-0.84,14.85,44.55,-34.05,27.8
2026/04/13 14:48:16.72,IMU,-34.67,4.39,-968.75,-0.71,-1.92,0.36,15.45,45.45,-34.65,28.0
2026/04/13 14:48:16.82,IMU,-26.86,-3.42,-973.63,-1.02,-1.03,2.62,14.85,44.85,-35.10,28.1
2026/04/13 14:48:16.92,IMU,-39.55,-6.84,-973.63,-2.42,0.08,-1.21,14.85,44.55,-34.80,28.1
2026/04/13 14:48:17.02,IMU,-24.90,8.79,-976.56,0.51,-1.92,-1.18,13.95,44.40,-34.65,28.0
2026/04/13 14:48:17.12,IMU,-23.93,-3.91,-973.14,-1.47,-1.45,-0.23,14.70,46.20,-33.90,28.2
2026/04/13 14:48:17.22,IMU,-20.51,3.42,-976.07,0.48,0.95,1.05,14.25,44.85,-34.50,28.2
2026/04/13 14:48:17.33,IMU,-36.13,-19.04,-979.49,-0.55,0.18,3.49,14.40,44.40,-34.20,28.0
2026/04/13 14:48:17.43,IMU,-32.71,-3.42,-978.03,-2.10,0.50,2.25,14.85,44.85,-34.05,28.1
2026/04/13 14:48:17.53,IMU,-32.71,10.25,-979.49,-1.48,-2.56,2.48,14.85,44.55,-34.80,28.2
2026/04/13 14:48:17.63,IMU,-32.71,-0.49,-975.10,-0.77,0.13,0.50,14.40,46.65,-34.65,28.0
2026/04/13 14:48:17.73,IMU,-19.04,0.98,-971.19,0.02,0.10,-1.92,15.60,45.30,-34.05,28.0
2026/04/13 14:48:17.83,IMU,-32.23,-1.95,-973.63,0.74,-1.91,5.68,15.60,44.55,-34.05,27.8
2026/04/13 14:48:17.93,IMU,-29.79,-8.79,-960.45,0.80,0.11,3.74,15.45,45.90,-35.70,28.0
2026/04/13 14:48:18.03,IMU,-28.81,5.37,-979.49,-2.13,-1.02,2.90,13.80,44.85,-35.10,27.9
2026/04/13 14:48:18.13,IMU,-35.16,11.72,-969.73,-1.60,-0.94,1.71,15.15,43.95,-35.25,28.0
2026/04/13 14:48:18.23,IMU,-30.27,-13.67,-977.54,-1.51,-0.80,-0.50,14.40,45.15,-35.25,28.0
2026/04/13 14:48:18.33,IMU,-38.09,0.98,-969.73,-0.60,0.92,-1.89,16.05,45.60,-35.85,27.9
2026/04/13 14:48:18.43,IMU,-19.04,-9.77,-981.93,-0.33,0.94,-0.37,14.55,46.80,-33.75,28.0
2026/04/13 14:48:18.53,IMU,-27.83,-25.39,-970.70,-0.63,-0.64,1.98,14.40,45.45,-34.95,28.0
2026/04/13 14:48:18.64,IMU,-29.79,-9.77,-975.59,-1.03,0.05,-1.97,15.15,45.45,-34.95,28.2
2026/04/13 14:48:18.74,IMU,-25.88,8.30,-971.19,-0.04,-1.57,4.16,13.65,45.15,-34.65,27.9
2026/04/13 14:48:18.84,IMU,-37.60,-14.65,-979.49,-0.61,-2.14,0.89,14.40,45.15,-34.95,27.8
2026/04/13 14:48:18.94,IMU,-18.55,-4.88,-978.03,-2.22,-0.40,1.34,15.45,45.90,-33.90,28.0
2026/04/13 14:48:19.04,IMU,-26.37,7.32,-979.00,0.30,-2.35,-1.56,14.55,46.05,-33.75,27.8
2026/04/13 14:48:19.14,IMU,-24.41,-0.98,-979.00,0.18,-2.02,-1.95,15.15,45.15,-36.00,28.0
2026/04/13 14:48:19.24,IMU,-31.74,6.35,-982.42,-1.79,0.21,1.64,14.85,44.55,-35.10,27.9
2026/04/13 14:48:19.34,IMU,-27.83,-0.49,-967.77,-0.89,0.48,4.82,15.60,44.85,-33.75,28.1
2026/04/13 14:48:19.44,IMU,-29.30,-5.37,-979.98,-0.69,-1.56,0.05,13.95,44.40,-33.90,27.9
2026/04/13 14:48:19.54,IMU,-33.69,-7.32,-973.63,-0.27,-0.79,1.08,14.85,46.35,-33.30,27.9
2026/04/13 14:48:19.64,IMU,-28.81,-10.74,-975.10,-0.52,0.98,-0.52,14.55,44.55,-35.55,28.0
2026/04/13 14:48:19.74,IMU,-23.93,-5.37,-977.05,0.73,-1.23,3.40,14.40,45.15,-34.95,28.0
2026/04/13 14:48:19.84,IMU,-27.34,-5.86,-972.66,-1.27,2.24,1.63,14.40,43.95,-34.20,28.0
2026/04/13 14:48:19.94,IMU,-29.30,-3.91,-982.42,-1.08,-3.40,0.73,13.80,46.05,-34.50,28.1
2026/04/13 14:48:20.05,IMU,-35.16,3.42,-974.12,-1.91,0.83,0.11,14.40,44.70,-33.90,28.0
2026/04/13 14:48:20.15,IMU,-30.76,5.37,-976.07,-0.37,1.32,2.49,14.55,44.55,-35.10,27.9
2026/04/13 14:48:20.25,IMU,-34.67,12.70,-970.70,0.25,0.97,3.84,15.45,44.70,-34.20,28.0
2026/04/13 14:48:20.35,IMU,-31.25,0.49,-972.66,-2.47,-1.84,-1.55,16.65,45.30,-35.55,28.0
2026/04/13 14:48:20.45,IMU,-29.79,4.39,-971.68,-2.19,-1.48,0.15,11.10,42.15,-29.70,28.0
2026/04/13 14:48:20.55,IMU,-35.16,-4.39,-991.70,0.00,-1.63,-1.02,15.15,45.45,-33.90,28.0
2026/04/13 14:48:20.65,IMU,-30.76,1.46,-971.68,-3.05,0.39,0.87,15.30,45.30,-34.80,28.0
2026/04/13 14:48:20.75,IMU,-32.71,-2.44,-979.98,-0.96,-1.95,-1.18,14.55,45.30,-33.30,28.2
2026/04/13 14:48:20.85,IMU,-38.09,-6.84,-980.96,1.44,-0.24,3.47,15.15,45.45,-35.25,28.0
2026/04/13 14:48:20.95,IMU,-23.93,-4.88,-980.47,0.30,0.02,2.89,15.75,43.95,-34.65,28.2
2026/04/13 14:48:21.05,IMU,-47.36,-0.49,-961.91,-0.53,-1.38,-0.99,15.30,44.25,-34.80,28.0
2026/04/13 14:48:21.15,IMU,-38.09,12.70,-988.77,-3.33,-0.84,2.26,15.15,43.95,-34.20,28.0
2026/04/13 14:48:21.26,IMU,-41.02,-7.32,-972.66,-1.87,0.04,0.56,15.75,43.95,-34.65,28.1
2026/04/13 14:48:21.36,IMU,-22.46,6.84,-980.47,-1.68,-0.41,-0.50,15.30,44.55,-34.80,28.0
2026/04/13 14:48:21.46,IMU,-40.53,-5.37,-976.07,-2.89,-1.30,0.01,15.30,46.05,-35.55,28.0
2026/04/13 14:48:21.56,IMU,-38.09,-4.88,-965.82,-1.92,-2.63,3.18,15.15,45.45,-34.20,28.0
2026/04/13 14:48:21.66,IMU,-28.81,-11.23,-965.82,-0.67,-1.92,0.53,15.30,44.25,-35.55,27.8
2026/04/13 14:48:21.76,IMU,-14.65,-0.49,-977.54,0.65,0.02,2.11,15.45,45.15,-35.25,27.9
2026/04/13 14:48:21.86,IMU,-29.30,10.25,-974.12,0.34,-1.98,-0.59,15.15,44.70,-35.25,28.1
2026/04/13 14:48:21.96,IMU,-22.46,0.98,-974.12,0.10,0.02,-0.55,14.25,44.85,-34.50,28.0
2026/04/13 14:48:22.06,IMU,-40.53,-6.35,-981.45,-1.79,0.56,-1.66,15.15,45.15,-34.20,28.2
2026/04/13 14:48:22.16,IMU,-32.71,0.00,-970.70,-0.41,-0.63,3.08,14.85,44.55,-34.80,28.2
2026/04/13 14:48:22.26,IMU,-26.86,-8.30,-976.56,-0.03,-2.29,0.02,15.30,44.25,-33.75,28.4
2026/04/13 14:48:22.36,IMU,-35.64,-1.95,-969.24,-2.73,-0.16,-1.34,15.15,43.95,-34.65,28.1
2026/04/13 14:48:22.46,IMU,-38.09,-10.74,-961.91,-2.00,-0.14,4.33,14.55,46.05,-35.55,27.9
2026/04/13 14:48:22.57,IMU,-40.53,1.95,-975.59,-0.14,0.76,-0.95,14.55,44.85,-33.75,28.0
2026/04/13 14:48:22.67,IMU,-31.25,0.98,-970.70,-0.26,-0.56,0.74,15.60,44.25,-35.85,27.9
2026/04/13 14:48:22.77,IMU,-41.50,3.42,-980.47,0.64,0.19,-2.41,14.55,44.85,-34.50,27.8
2026/04/13 14:48:22.87,IMU,-33.69,1.95,-969.73,0.17,-2.30,-0.61,15.45,44.70,-34.65,28.1
2026/04/13 14:48:22.97,IMU,-36.13,1.46,-996.09,-1.09,-0.76,2.76,14.85,45.30,-34.50,28.0
2026/04/13 14:48:23.07,IMU,-28.81,16.60,-973.14,-0.67,-1.17,3.06,16.05,44.85,-34.80,28.1
2026/04/13 14:48:23.17,IMU,-41.99,-7.32,-973.63,-2.52,-1.89,0.35,14.85,43.50,-35.10,28.0
2026/04/13 14:48:23.27,IMU,-40.04,5.86,-976.07,-0.56,0.20,3.48,17.10,44.25,-34.80,28.2
2026/04/13 14:48:23.37,IMU,-30.76,-7.81,-976.56,-0.77,0.53,0.61,13.95,45.15,-34.65,28.1
2026/04/13 14:48:23.47,IMU,-24.90,-10.25,-974.12,-0.33,-0.98,0.13,15.30,46.05,-34.05,28.0
2026/04/13 14:48:23.57,IMU,-37.60,4.39,-985.35,0.81,-1.59,0.17,14.70,45.45,-34.65,28.2
2026/04/13 14:48:23.67,IMU,-42.97,4.88,-981.45,-1.38,-0.58,-0.04,16.65,45.30,-35.10,28.3
2026/04/13 14:48:23.77,IMU,-34.18,7.81,-965.33,-1.65,-0.37,0.29,15.60,44.55,-34.50,28.0
2026/04/13 14:48:23.87,IMU,-32.23,7.32,-988.77,-1.05,-0.98,0.35,13.95,45.15,-34.65,27.8
2026/04/13 14:48:23.98,IMU,-34.67,6.35,-978.52,-1.37,-2.44,-0.42,14.40,45.15,-34.65,27.7
2026/04/13 14:48:24.08,IMU,-39.55,0.98,-978.52,-0.74,-0.71,2.76,15.75,45.45,-34.95,27.9
2026/04/13 14:48:24.18,IMU,-22.46,-3.42,-974.12,0.14,-2.31,0.19,15.30,46.05,-33.75,28.0
2026/04/13 14:48:24.28,IMU,-32.23,-2.93,-978.52,-0.16,-0.71,1.93,14.85,45.30,-35.10,28.0
2026/04/13 14:48:24.38,IMU,-18.55,1.95,-984.86,-0.58,-2.13,-0.88,13.80,45.30,-34.50,28.0
2026/04/13 14:48:24.48,IMU,-41.99,11.72,-979.49,0.01,-0.05,0.79,14.55,45.30,-34.80,28.0
2026/04/13 14:48:24.58,IMU,-31.25,-0.49,-979.98,-0.73,0.66,0.09,15.15,45.45,-34.65,28.2
2026/04/13 14:48:24.68,IMU,-34.67,11.23,-962.89,-1.11,-0.96,1.40,14.25,45.30,-35.55,28.2
2026/04/13 14:48:24.78,IMU,-37.11,1.95,-979.98,2.05,-0.34,0.21,15.60,44.25,-35.10,27.9
2026/04/13 14:48:24.88,IMU,-24.90,-5.37,-971.19,-0.55,0.17,-0.13,13.65,43.65,-34.95,28.2
2026/04/13 14:48:24.98,IMU,-32.23,-20.51,-971.68,1.24,-0.34,-2.34,14.55,43.50,-33.75,28.1
2026/04/13 14:48:25.09,IMU,-32.71,2.44,-991.21,-0.43,-1.30,0.56,14.85,46.35,-35.10,28.2
2026/04/13 14:48:25.19,IMU,-23.44,12.21,-972.66,-1.39,-1.69,-1.15,13.80,44.55,-34.50,28.1
2026/04/13 14:48:25.29,IMU,-38.09,-5.37,-982.91,-2.12,-2.75,-0.91,14.25,45.60,-34.80,28.0
2026/04/13 14:48:25.39,IMU,-45.90,-7.32,-972.66,-1.09,0.55,-0.54,15.45,45.45,-35.70,28.1
2026/04/13 14:48:25.49,IMU,-36.13,9.77,-986.33,0.24,1.25,0.74,14.40,45.15,-33.90,28.0
2026/04/13 14:48:25.59,IMU,-29.79,22.95,-981.93,-1.62,-2.34,-1.65,12.45,44.25,-30.90,28.2
2026/04/13 14:48:25.70,IMU,-36.62,-7.81,-977.05,-0.17,0.15,-2.46,14.25,44.25,-34.05,28.0
2026/04/13 14:48:25.80,IMU,-34.18,11.23,-979.00,-0.79,-1.25,2.59,15.15,44.40,-33.15,28.0
2026/04/13 14:48:25.90,IMU,-21.48,-11.72,-986.33,0.33,-2.53,1.17,14.25,44.25,-33.75,28.0
2026/04/13 14:48:26.00,IMU,12.70,28.32,-947.75,-2.14,6.47,-1.02,14.25,43.80,-33.30,27.8
2026/04/13 14:48:26.10,IMU,-31.74,14.65,-982.42,-0.91,-1.57,0.34,13.95,46.65,-34.95,28.1
2026/04/13 14:48:26.20,IMU,-35.16,-8.79,-973.14,1.40,-0.31,2.08,14.85,45.60,-35.85,28.0
2026/04/13 14:48:26.30,IMU,-29.30,0.49,-961.91,0.05,0.66,0.91,14.70,44.70,-35.25,27.9
2026/04/13 14:48:26.40,IMU,-35.64,-14.65,-976.56,-0.37,-1.99,0.71,14.55,44.25,-34.05,28.2
2026/04/13 14:48:26.50,IMU,-31.25,2.44,-981.45,-1.60,-2.13,-1.90,15.30,45.30,-34.80,28.0
2026/04/13 14:48:26.60,IMU,-28.81,8.30,-981.45,-2.07,-3.05,0.15,12.60,42.90,-31.35,28.1
2026/04/13 14:48:26.70,IMU,-29.79,-1.46,-976.07,-2.01,-1.69,-1.37,14.40,46.20,-34.95,28.0
2026/04/13 14:48:26.80,IMU,-21.97,-5.37,-977.54,-0.85,-2.18,0.92,15.45,45.90,-34.95,28.2
2026/04/13 14:48:26.90,IMU,-35.16,-6.84,-966.80,-1.05,-2.24,0.36,15.75,45.45,-34.95,28.3
2026/04/13 14:48:27.01,IMU,-39.55,0.49,-961.91,-2.12,-0.14,1.29,14.85,43.80,-34.50,28.0
2026/04/13 14:48:27.11,IMU,-37.60,-6.84,-980.47,-0.54,0.92,1.76,15.30,44.85,-34.80,28.2
2026/04/13 14:48:27.21,IMU,-34.67,6.35,-965.33,-0.17,-0.99,3.02,15.30,45.30,-34.80,28.0
2026/04/13 14:48:27.31,IMU,-23.93,10.25,-971.19,-0.20,-1.24,-0.53,13.95,46.20,-34.20,28.0
2026/04/13 14:48:27.41,IMU,-39.06,2.44,-966.80,-1.53,0.52,0.73,14.85,44.55,-35.10,28.4
2026/04/13 14:48:27.51,IMU,-31.25,7.32,-983.40,-2.05,1.95,-0.98,15.45,45.90,-34.95,27.8
2026/04/13 14:48:27.62,IMU,-23.44,5.86,-982.42,0.84,-0.41,-0.56,12.45,42.75,-29.85,27.9
2026/04/13 14:48:27.72,IMU,-29.79,-10.25,-975.59,0.36,-0.52,0.57,14.55,45.30,-34.50,27.8
2026/04/13 14:48:27.82,IMU,-31.25,-0.49,-970.21,1.02,0.80,-0.21,14.40,46.20,-34.95,28.2
2026/04/13 14:48:27.92,IMU,-35.16,-4.39,-980.47,-0.92,-0.70,-0.28,15.45,45.15,-33.90,28.0
2026/04/13 14:48:28.02,IMU,-36.13,-0.49,-988.28,-1.24,-0.74,-1.09,15.60,45.60,-34.05,28.0
2026/04/13 14:48:28.12,IMU,-33.69,-17.58,-977.54,-0.33,-2.11,1.50,14.55,45.30,-34.05,27.8
2026/04/13 14:48:28.22,IMU,-35.64,1.46,-971.19,1.39,-1.03,0.21,15.75,45.15,-34.20,28.0
2026/04/13 14:48:29.08,IMU,-31.25,0.98,-978.03,-0.69,-1.47,-0.69,14.85,44.25,-34.50,28.1
2026/04/13 14:48:29.18,IMU,-35.16,-4.39,-978.03,-0.98,0.81,1.98,15.75,43.65,-35.25,27.8
2026/04/13 14:48:29.28,IMU,-28.32,-8.30,-980.47,-1.21,-1.16,-0.80,14.55,43.05,-34.80,27.8
2026/04/13 14:48:29.38,IMU,-29.30,3.42,-983.40,-1.84,1.22,-1.76,16.20,45.90,-34.20,28.0
2026/04/13 14:48:29.49,IMU,-31.74,1.46,-970.70,-1.41,0.18,-0.43,15.60,44.55,-35.55,28.0
2026/04/13 14:48:29.59,IMU,-32.23,-4.88,-988.77,0.27,-1.85,1.04,13.65,45.45,-34.95,28.0
2026/04/13 14:48:29.69,IMU,-39.06,-3.91,-978.03,-1.56,0.05,1.19,14.40,46.65,-34.65,28.0
2026/04/13 14:48:29.79,IMU,-35.64,0.49,-961.43,-1.01,0.27,2.01,15.30,46.05,-34.80,27.9
2026/04/13 14:48:29.89,IMU,-37.11,-0.98,-983.40,-1.00,-1.36,-0.30,14.70,44.40,-34.65,28.0
2026/04/13 14:48:29.99,IMU,-40.53,9.28,-970.21,-0.86,-2.51,0.00,15.60,44.25,-34.80,28.2
2026/04/13 14:48:30.09,IMU,-44.92,3.91,-985.84,-1.33,-3.06,1.73,14.55,43.80,-33.30,28.0
2026/04/13 14:48:30.19,IMU,-33.20,-2.44,-970.70,-1.02,-1.07,-0.18,15.15,43.65,-34.95,28.0
2026/04/13 14:48:30.29,IMU,-14.65,9.28,-979.98,0.37,-0.25,-0.60,15.15,45.90,-34.20,28.0
2026/04/13 14:48:30.39,IMU,-25.39,-9.28,-972.66,-0.79,1.24,-0.12,15.45,46.20,-34.65,28.0
2026/04/13 14:48:30.49,IMU,-31.25,-2.93,-975.59,-1.25,-2.40,2.24,15.45,45.15,-35.70,28.4
2026/04/13 14:48:30.59,IMU,-22.95,-8.79,-970.21,-0.42,2.58,-2.75,15.60,44.85,-34.50,28.0
2026/04/13 14:48:30.69,IMU,-34.67,-8.79,-972.17,-1.63,-0.12,0.32,15.15,44.40,-34.20,28.0
2026/04/13 14:48:30.80,IMU,-45.90,7.81,-970.70,1.89,-0.69,3.39,14.25,45.60,-35.55,28.0
2026/04/13 14:48:30.90,IMU,-37.60,4.88,-972.17,0.51,-1.56,0.30,15.60,45.30,-34.05,28.0
2026/04/13 14:48:31.00,IMU,-31.25,1.46,-976.56,0.68,0.36,0.11,15.45,44.40,-34.95,28.0
2026/04/13 14:48:31.10,IMU,-37.11,-5.86,-973.63,0.18,-1.20,-1.02,15.75,43.95,-35.70,28.1
2026/04/13 14:48:31.20,IMU,-32.71,6.35,-979.49,-0.23,-1.14,1.30,15.15,44.40,-33.60,28.2
2026/04/13 14:48:31.30,IMU,-38.09,-4.88,-983.40,-0.97,-0.17,1.74,14.55,44.25,-35.10,28.0
2026/04/13 14:48:31.40,IMU,-34.67,0.98,-968.75,-0.50,-1.34,2.29,17.25,45.15,-34.65,27.9
2026/04/13 14:48:31.50,IMU,-34.67,-12.70,-964.84,0.27,-0.76,0.11,14.55,45.30,-34.05,28.1
2026/04/13 14:48:31.60,IMU,-28.81,-13.18,-974.12,-0.99,-0.96,-0.95,15.45,45.45,-33.90,27.9
2026/04/13 14:48:31.70,IMU,-43.95,-0.49,-977.54,-2.61,0.17,-2.76,14.40,45.15,-34.95,28.0
2026/04/13 14:48:31.80,IMU,-33.20,0.49,-973.63,-1.47,0.33,4.62,13.95,44.70,-33.60,28.0
2026/04/13 14:48:31.90,IMU,-25.39,-2.93,-978.03,0.02,0.83,1.59,14.40,43.95,-33.60,28.2
2026/04/13 14:48:32.00,IMU,-37.60,-8.79,-973.63,-1.36,0.60,-0.63,15.15,45.45,-33.15,28.2
2026/04/13 14:48:32.10,IMU,-44.92,-12.21,-992.68,-0.81,-0.08,-0.63,15.15,45.15,-33.90,28.3
2026/04/13 14:48:32.21,IMU,-39.55,-1.46,-972.17,-0.85,-2.27,-0.46,12.90,44.70,-33.60,28.2
2026/04/13 14:48:32.31,IMU,-26.86,-2.44,-985.84,1.24,0.01,-0.23,15.45,46.20,-35.70,27.9
2026/04/13 14:48:32.41,IMU,-36.62,-0.98,-970.70,-0.84,-0.65,0.52,15.60,44.85,-34.80,27.7
2026/04/13 14:48:32.51,IMU,-35.16,1.95,-974.61,-2.36,0.05,1.02,14.55,44.85,-34.80,27.9
2026/04/13 14:48:32.61,IMU,-39.06,1.46,-975.59,-0.70,-1.73,-0.19,15.45,44.40,-34.20,28.1
2026/04/13 14:48:32.71,IMU,-30.27,12.70,-976.07,-1.56,-0.63,-1.28,14.85,43.80,-35.55,28.2
2026/04/13 14:48:32.81,IMU,-40.04,4.39,-978.03,-0.27,1.48,1.69,15.75,45.45,-34.65,28.1
2026/04/13 14:48:32.91,IMU,-28.81,-11.72,-980.47,-1.11,-1.12,0.89,16.05,44.25,-34.50,28.2
2026/04/13 14:48:33.01,IMU,-39.55,10.25,-983.40,-0.02,0.76,-0.30,15.15,43.95,-35.25,28.1
2026/04/13 14:48:33.11,IMU,-27.34,4.88,-975.59,-0.59,-0.11,2.00,15.15,44.70,-34.65,28.0
2026/04/13 14:48:33.21,IMU,-43.46,-3.42,-979.00,-2.56,-0.49,0.10,12.90,43.20,-31.80,28.0
2026/04/13 14:48:33.31,IMU,-36.62,7.32,-976.07,-1.65,-1.16,-0.34,15.30,46.05,-35.55,28.0
2026/04/13 14:48:33.41,IMU,-34.18,-3.42,-971.19,-0.53,1.04,-0.42,15.45,45.45,-33.15,27.8
2026/04/13 14:48:33.51,IMU,-25.39,-7.81,-985.84,-1.75,-1.34,-1.38,15.75,46.65,-34.95,28.1
2026/04/13 14:48:33.62,IMU,-36.62,-5.37,-978.03,0.82,-0.71,0.99,15.30,46.05,-34.50,28.0
2026/04/13 14:48:33.72,IMU,-37.60,0.00,-968.26,-2.54,-0.83,1.34,13.80,44.85,-34.05,27.9
2026/04/13 14:48:33.82,IMU,-34.67,0.98,-976.07,1.42,0.21,-0.48,15.30,43.80,-34.05,28.1
2026/04/13 14:48:33.92,IMU,-23.93,4.39,-979.98,-0.28,-0.31,0.39,14.70,45.15,-34.20,28.1
2026/04/13 14:48:34.02,IMU,-29.79,0.00,-969.24,-2.33,-1.25,2.40,15.75,45.45,-34.65,28.0
2026/04/13 14:48:34.12,IMU,-39.55,1.95,-976.56,0.87,1.84,-2.63,14.55,46.35,-34.05,27.9
2026/04/13 14:48:34.22,IMU,-34.67,-4.39,-979.98,-0.16,0.38,1.27,15.15,43.20,-31.35,27.8
2026/04/13 14:48:34.32,IMU,-35.16,-9.77,-985.84,-0.30,-1.43,-0.71,15.15,45.15,-34.65,27.8
2026/04/13 14:48:34.42,IMU,-22.46,14.16,-979.00,-0.81,-2.23,2.39,16.35,45.60,-35.10,28.0
2026/04/13 14:48:34.53,IMU,-23.44,-3.42,-961.91,-2.60,1.51,-0.31,14.25,45.60,-34.50,28.2
2026/04/13 14:48:34.63,IMU,-29.79,-1.95,-979.98,-1.47,-0.28,0.10,15.30,45.60,-34.05,27.8
2026/04/13 14:48:34.73,IMU,-19.04,-13.67,-971.19,-1.73,0.14,2.52,14.55,43.80,-34.05,28.0
2026/04/13 14:48:34.83,IMU,-35.16,-3.91,-971.19,-0.87,-0.59,0.95,14.25,44.85,-35.10,28.0
2026/04/13 14:48:34.93,IMU,-31.25,15.14,-976.07,0.52,-0.47,-2.88,15.45,44.70,-34.65,28.0
2026/04/13 14:48:35.03,IMU,-31.74,1.46,-976.56,0.21,-2.55,1.69,14.55,44.55,-34.80,27.9
2026/04/13 14:48:35.13,IMU,-39.06,-2.44,-979.00,1.83,-1.89,0.94,14.70,45.45,-35.25,28.0
2026/04/13 14:48:35.23,IMU,-43.46,2.44,-974.12,1.38,0.40,-1.09,15.45,45.45,-34.95,28.3
2026/04/13 14:48:35.33,IMU,-27.83,-2.44,-968.75,0.57,-1.05,0.78,15.45,45.90,-33.60,28.0
2026/04/13 14:48:35.43,IMU,-31.25,-2.93,-975.10,0.54,-1.85,1.75,15.30,46.05,-34.50,28.0
2026/04/13 14:48:35.53,IMU,-25.88,-0.49,-967.77,0.79,-1.56,1.51,14.70,44.40,-34.95,27.9
2026/04/13 14:48:35.63,IMU,-35.64,-11.72,-979.00,0.40,-0.73,2.43,15.15,47.70,-33.90,28.2
2026/04/13 14:48:35.73,IMU,-22.46,-0.98,-964.84,-1.08,-1.17,2.01,13.65,43.95,-36.45,28.0
2026/04/13 14:48:35.83,IMU,-24.41,11.72,-977.05,0.32,-1.99,1.07,15.30,43.80,-34.80,27.8
2026/04/13 14:48:35.94,IMU,-38.09,-3.42,-979.98,-1.56,-1.56,0.71,16.05,46.05,-33.75,28.0
2026/04/13 14:48:36.04,IMU,-29.30,0.98,-975.59,0.50,-0.27,0.63,15.15,45.90,-33.90,27.9
2026/04/13 14:48:36.14,IMU,-41.50,-2.44,-979.49,-0.95,0.70,-0.79,14.55,43.80,-35.55,28.0
2026/04/13 14:48:36.24,IMU,-33.69,-2.93,-976.56,-0.18,0.61,-3.02,15.15,44.70,-33.90,28.1
2026/04/13 14:48:36.34,IMU,-34.18,-4.88,-972.17,-1.79,-3.14,-0.32,14.55,43.50,-35.85,28.1
2026/04/13 14:48:36.44,IMU,-41.99,0.49,-973.63,-1.41,-1.31,4.61,14.25,44.85,-35.85,28.0
2026/04/13 14:48:36.54,IMU,-44.92,5.86,-979.98,0.54,-0.74,0.56,15.30,46.35,-34.50,28.2
2026/04/13 14:48:36.64,IMU,-33.20,-17.09,-975.10,-0.78,-0.33,0.89,15.15,46.20,-35.25,28.0
2026/04/13 14:48:36.74,IMU,-27.83,9.28,-976.07,0.08,-0.25,-2.25,14.55,45.60,-34.05,28.0
2026/04/13 14:48:36.84,IMU,-38.09,-9.28,-979.98,-1.02,-2.92,-1.38,13.95,45.90,-35.70,28.2
2026/04/13 14:48:36.94,IMU,-38.09,4.88,-978.03,-1.05,1.45,0.65,15.30,45.30,-34.50,28.0
2026/04/13 14:48:37.04,IMU,-32.23,-10.74,-980.96,0.12,-0.80,-0.68,15.45,45.15,-34.20,28.0
2026/04/13 14:48:37.14,IMU,-22.95,3.42,-966.80,0.04,-1.85,-0.44,13.95,46.95,-34.95,28.0
2026/04/13 14:48:37.24,IMU,-42.48,9.28,-976.07,-0.58,-0.95,-1.05,16.20,45.45,-34.20,28.2
2026/04/13 14:48:37.35,IMU,-38.09,6.35,-979.98,-1.31,-1.24,0.02,14.85,44.85,-34.05,28.0
2026/04/13 14:48:37.45,IMU,-39.06,-2.93,-981.45,-1.29,-3.10,1.69,14.85,45.60,-34.80,28.0
2026/04/13 14:48:37.55,IMU,-43.46,-3.91,-975.59,0.03,-1.98,1.24,15.30,46.05,-34.80,28.0
2026/04/13 14:48:37.65,IMU,-30.76,-3.91,-973.63,-0.93,-1.56,0.88,15.30,44.25,-34.80,27.9
2026/04/13 14:48:37.75,IMU,-43.95,-9.28,-972.17,-1.90,0.72,3.25,15.30,45.30,-33.75,27.8
2026/04/13 14:48:37.85,IMU,-37.60,-12.21,-974.12,0.04,0.66,3.33,15.15,46.20,-34.95,27.8
2026/04/13 14:48:37.95,IMU,-34.67,5.86,-962.40,-0.95,-2.15,-2.60,15.60,46.35,-34.50,28.0
2026/04/13 14:48:38.05,IMU,-25.88,3.42,-970.70,-1.08,-0.18,3.79,16.05,47.85,-34.50,28.0
2026/04/13 14:48:38.15,IMU,-36.13,-13.18,-972.66,-1.29,0.12,0.89,15.60,47.10,-34.80,28.2
2026/04/13 14:48:38.25,IMU,-49.32,-5.37,-962.89,0.72,-4.02,3.73,15.60,44.25,-34.50,28.0
2026/04/13 14:48:38.35,IMU,-37.60,0.49,-977.05,-0.29,-1.66,0.28,14.55,44.85,-34.50,28.0
2026/04/13 14:48:38.45,IMU,-28.32,-10.25,-978.52,0.38,2.79,0.39,14.85,45.60,-33.00,27.9
2026/04/13 14:48:38.55,IMU,-44.92,-1.46,-977.54,-0.64,0.70,0.28,15.60,46.35,-33.00,28.0
2026/04/13 14:48:38.65,IMU,-82.52,-34.67,-921.39,-2.80,13.08,14.02,14.40,46.20,-32.55,28.3
2026/04/13 14:48:38.76,IMU,-39.06,12.70,-972.17,-1.22,-3.65,0.96,15.30,45.60,-33.75,27.9
2026/04/13 14:48:38.86,IMU,-54.20,6.84,-1042.48,-1.88,-2.48,-0.96,14.85,46.35,-34.80,28.1
2026/04/13 14:48:38.96,IMU,-51.27,-34.67,-962.40,-1.05,-2.41,1.02,15.15,44.70,-33.60,28.2
2026/04/13 14:48:39.06,IMU,-21.48,112.30,-1216.80,11.24,53.61,10.79,14.55,46.05,-34.05,28.3
2026/04/13 14:48:39.16,IMU,78.61,-156.25,-1113.28,3.73,163.77,1.91,10.20,45.30,-37.65,28.1
2026/04/13 14:48:39.26,IMU,360.84,-36.13,-877.93,9.61,152.08,-12.89,4.20,45.45,-37.50,28.2
2026/04/13 14:48:39.36,IMU,731.45,157.23,-584.96,-1.01,250.13,6.69,-3.60,43.95,-36.00,28.0
2026/04/13 14:48:39.46,IMU,961.43,-29.79,-391.11,1.29,192.75,12.66,-12.45,44.55,-27.30,27.9
2026/04/13 14:48:39.56,IMU,852.54,-35.64,-135.74,8.80,33.38,12.34,-14.55,43.50,-24.15,28.0
2026/04/13 14:48:39.66,IMU,1064.94,-40.04,-189.94,-6.17,11.10,-13.82,-14.25,44.85,-25.20,28.0
2026/04/13 14:48:39.76,IMU,1041.99,-220.70,-417.48,-10.15,18.23,3.92,-12.00,46.80,-23.10,28.1
2026/04/13 14:48:39.86,IMU,999.02,10.25,-9.28,1.34,55.53,1.80,-12.75,47.55,-20.70,27.8
2026/04/13 14:48:39.96,IMU,996.09,-14.16,129.39,-0.29,14.94,-0.75,-12.45,46.80,-18.15,27.8
2026/04/13 14:48:40.07,IMU,998.05,-11.23,40.53,-2.91,-17.02,1.20,-13.65,46.95,-18.75,28.0
2026/04/13 14:48:40.17,IMU,997.07,-7.32,0.98,-3.31,-2.44,-0.58,-13.35,46.95,-20.85,28.0
2026/04/13 14:48:40.27,IMU,1010.74,-2.93,49.32,0.46,1.84,0.63,-12.60,45.90,-19.05,28.0
2026/04/13 14:48:40.37,IMU,995.12,-7.81,14.16,-2.63,1.63,2.23,-16.20,44.70,-13.80,27.7
2026/04/13 14:48:40.47,IMU,933.59,-8.79,25.39,1.83,10.73,1.83,-11.85,47.40,-19.35,28.0
2026/04/13 14:48:40.57,IMU,1004.39,3.42,6.84,-0.71,-2.58,3.04,-12.00,45.30,-19.20,28.0
2026/04/13 14:48:40.67,IMU,998.54,0.00,57.13,-0.98,-0.18,2.89,-13.05,47.10,-20.25,28.1
2026/04/13 14:48:40.77,IMU,1009.77,-7.81,24.90,-0.69,-1.47,1.27,-12.75,45.60,-19.95,28.0
2026/04/13 14:48:40.87,IMU,993.16,-3.42,16.11,-0.88,0.73,1.18,-13.05,46.05,-21.00,28.0
2026/04/13 14:48:40.97,IMU,996.58,-23.44,30.27,-0.02,-3.33,-2.66,-12.90,45.45,-19.80,27.9
2026/04/13 14:48:41.07,IMU,992.68,-12.21,-1.46,-0.32,-1.11,0.36,-13.05,44.55,-21.00,28.0
2026/04/13 14:48:41.17,IMU,998.54,9.77,35.16,-0.27,0.31,0.82,-13.05,46.80,-20.25,28.1
2026/04/13 14:48:41.27,IMU,989.75,-29.79,21.48,-0.66,-0.07,1.54,-13.05,46.35,-19.20,28.1
2026/04/13 14:48:41.39,IMU,996.58,-10.74,15.63,-3.06,0.85,0.51,-13.05,45.30,-18.90,28.0
2026/04/13 14:48:41.49,IMU,997.07,-1.95,35.64,0.32,-1.92,-1.90,-12.75,45.60,-19.95,28.1
2026/04/13 14:48:41.59,IMU,998.54,-11.72,15.63,-1.18,0.69,0.76,-12.15,45.90,-19.35,28.0
2026/04/13 14:48:41.69,IMU,998.05,1.46,27.83,-0.56,-1.39,2.55,-13.50,45.60,-19.50,28.1
2026/04/13 14:48:41.79,IMU,996.58,-0.49,23.44,-0.90,-0.85,-0.72,-13.80,45.30,-19.50,27.8
2026/04/13 14:48:41.89,IMU,1007.81,6.84,29.79,-0.82,0.61,0.75,-12.15,45.15,-19.05,27.9
2026/04/13 14:48:41.99,IMU,996.58,-5.37,9.28,-2.79,-2.38,-2.20,-13.95,46.65,-19.35,28.0
2026/04/13 14:48:42.09,IMU,993.65,-11.72,35.64,0.71,-0.91,2.93,-12.90,44.70,-18.30,28.0
2026/04/13 14:48:42.19,IMU,1011.23,-10.25,25.88,-1.24,-1.03,1.83,-13.05,44.85,-19.20,28.0
2026/04/13 14:48:42.30,IMU,1001.46,-2.93,5.86,-0.26,-0.34,1.47,-13.50,44.25,-18.15,28.2
2026/04/13 14:48:42.40,IMU,996.09,-14.65,2.44,-0.03,-2.92,1.72,-13.05,45.30,-19.50,28.0
2026/04/13 14:48:42.50,IMU,1009.28,4.88,14.65,-1.60,-2.97,2.15,-12.75,46.05,-21.00,28.0
2026/04/13 14:48:42.60,IMU,1006.35,-10.74,33.20,-1.34,-2.31,1.09,-12.45,46.05,-19.20,28.2
2026/04/13 14:48:42.70,IMU,984.86,-15.63,46.39,-0.82,2.89,2.42,-13.05,47.10,-18.90,27.9
2026/04/13 14:48:42.80,IMU,987.30,-2.44,35.64,-0.36,-3.60,2.34,-12.60,45.15,-19.80,28.2
2026/04/13 14:48:42.90,IMU,985.84,-16.11,17.58,-1.50,0.79,1.43,-12.75,47.10,-19.20,27.9
2026/04/13 14:48:43.00,IMU,994.14,-19.04,37.60,-0.15,0.35,-1.48,-13.35,46.65,-19.35,27.9
2026/04/13 14:48:43.10,IMU,990.23,10.74,-2.44,-0.20,-2.02,1.64,-12.60,46.20,-19.80,28.0
2026/04/13 14:48:43.20,IMU,1008.79,-6.84,9.28,-0.84,-0.50,2.08,-13.05,45.60,-18.90,28.0
2026/04/13 14:48:43.30,IMU,1009.77,-9.77,21.97,-0.18,2.79,0.70,-13.65,45.45,-20.10,27.9
2026/04/13 14:48:43.40,IMU,986.33,-10.74,16.60,0.07,1.78,1.76,-13.65,47.40,-19.35,28.2
2026/04/13 14:48:43.50,IMU,1015.63,-4.39,12.21,-0.86,0.34,-0.40,-13.35,46.65,-20.10,28.1
2026/04/13 14:48:43.61,IMU,1003.91,8.79,15.63,-2.83,1.23,-0.66,-13.65,47.40,-20.10,27.9
2026/04/13 14:48:43.71,IMU,987.30,-0.49,22.95,-2.21,-1.63,0.81,-12.75,45.60,-20.25,28.1
2026/04/13 14:48:43.81,IMU,1000.00,-3.91,15.63,0.41,-3.66,-1.68,-14.25,45.60,-20.25,28.2
2026/04/13 14:48:43.91,IMU,993.16,-2.93,9.77,0.15,-1.60,-0.46,-13.35,46.65,-19.35,27.9
2026/04/13 14:48:44.01,IMU,994.14,-8.79,23.93,-1.80,0.07,-0.48,-11.55,46.65,-20.10,28.0
2026/04/13 14:48:44.11,IMU,1005.86,-4.88,20.51,1.06,-1.11,2.53,-11.70,46.05,-19.50,27.8
2026/04/13 14:48:44.21,IMU,1000.98,-2.44,17.58,0.79,-2.50,0.17,-11.70,46.05,-20.25,27.9
2026/04/13 14:48:44.31,IMU,988.28,0.49,19.04,0.01,-2.14,0.34,-12.75,46.05,-19.95,27.8
2026/04/13 14:48:44.41,IMU,1012.21,-4.88,38.57,0.33,-1.89,0.18,-12.90,46.20,-20.40,28.0
2026/04/13 14:48:44.51,IMU,997.56,7.32,-3.91,-1.27,0.82,0.37,-13.95,45.15,-20.85,27.9
2026/04/13 14:48:44.61,IMU,991.70,-5.86,23.44,-2.18,2.04,0.66,-12.45,46.35,-20.70,27.9
2026/04/13 14:48:44.71,IMU,996.09,-8.30,24.41,-0.79,-2.95,1.47,-12.75,45.30,-19.95,28.0
2026/04/13 14:48:44.81,IMU,1007.32,5.37,21.48,0.27,1.58,-0.53,-14.40,45.45,-20.40,27.9
2026/04/13 14:48:44.91,IMU,1005.37,1.46,25.39,-0.58,1.45,0.35,-12.45,46.05,-19.50,27.9
2026/04/13 14:48:45.02,IMU,1001.95,-4.88,21.00,0.20,-1.60,-1.28,-12.45,47.10,-20.70,27.9
2026/04/13 14:48:45.12,IMU,1011.72,-11.23,19.04,-0.41,-0.84,-0.58,-12.15,44.70,-18.00,28.0
2026/04/13 14:48:45.22,IMU,1012.70,-3.42,24.90,-0.17,-3.56,-1.86,-13.05,46.35,-19.95,28.2
2026/04/13 14:48:45.32,IMU,1004.39,-4.39,13.67,-0.01,-3.52,0.42,-13.80,46.35,-19.20,28.0
2026/04/13 14:48:45.42,IMU,997.56,1.95,33.20,-1.89,1.66,-3.12,-12.75,46.80,-19.50,27.8
2026/04/13 14:48:45.52,IMU,1015.14,9.28,12.21,-2.04,-0.63,-2.18,-14.25,46.35,-19.50,28.0
2026/04/13 14:48:45.62,IMU,996.58,-15.14,20.02,-1.18,-3.63,1.96,-14.25,45.60,-19.20,28.2
2026/04/13 14:48:45.72,IMU,1000.49,-1.46,6.35,0.03,1.02,1.19,-12.00,46.35,-19.20,27.9
2026/04/13 14:48:45.82,IMU,1001.95,-15.63,22.46,-2.53,-1.69,1.10,-12.15,45.45,-20.85,28.0
2026/04/13 14:48:45.92,IMU,1013.67,0.98,16.60,-0.82,1.60,1.08,-13.50,45.60,-22.05,27.9
2026/04/13 14:48:46.02,IMU,986.33,2.44,21.97,-1.37,-1.24,1.11,-11.25,46.05,-20.70,28.0
2026/04/13 14:48:46.12,IMU,996.58,-14.65,25.39,-0.40,0.83,-0.22,-13.35,46.95,-20.10,27.9
2026/04/13 14:48:46.22,IMU,1000.98,-13.18,21.97,-0.16,-3.08,-0.75,-12.60,46.65,-18.75,28.0
2026/04/13 14:48:46.32,IMU,1020.51,-10.74,20.02,0.16,-0.90,-4.02,-12.15,45.90,-21.15,28.0
2026/04/13 14:48:46.43,IMU,1003.42,-9.28,13.67,-0.57,-2.54,-2.02,-12.15,45.90,-19.05,28.2
2026/04/13 14:48:46.53,IMU,999.02,-9.77,16.60,-0.76,-3.02,-1.75,-15.15,44.70,-16.50,28.0
2026/04/13 14:48:46.63,IMU,1000.49,2.44,21.48,0.71,1.93,0.91,-12.15,45.45,-21.15,28.0
2026/04/13 14:48:46.73,IMU,990.23,0.98,14.65,-1.23,-1.08,2.44,-12.15,47.40,-20.40,28.0
2026/04/13 14:48:46.83,IMU,1000.00,-18.55,25.39,-2.04,-0.52,0.11,-13.05,45.60,-19.50,28.0
2026/04/13 14:48:46.93,IMU,985.84,-5.86,19.53,-0.79,-2.54,-0.47,-13.35,45.45,-19.80,28.1
2026/04/13 14:48:47.03,IMU,1011.23,-9.28,24.41,-1.36,-0.32,-0.25,-12.60,44.70,-20.40,27.9
2026/04/13 14:48:47.13,IMU,1013.67,-12.21,8.79,-1.08,1.98,1.87,-14.40,46.95,-20.85,28.2
2026/04/13 14:48:47.23,IMU,993.16,-0.98,18.55,-0.64,-1.72,0.70,-12.45,46.80,-21.75,28.0
2026/04/13 14:48:47.33,IMU,999.02,-7.32,11.23,0.59,-1.34,1.19,-13.50,46.35,-19.20,28.2
2026/04/13 14:48:47.43,IMU,995.12,-10.25,25.88,0.00,0.66,1.63,-12.60,46.20,-19.35,28.0
2026/04/13 14:48:47.54,IMU,1005.37,-11.72,2.44,-2.18,-0.86,-4.19,-15.75,44.40,-15.45,28.1
2026/04/13 14:48:47.64,IMU,1006.35,-2.93,14.65,-0.72,-1.68,0.39,-11.55,46.20,-20.40,27.9
2026/04/13 14:48:47.74,IMU,997.56,-2.44,10.74,-0.66,0.58,0.20,-12.60,45.90,-21.90,27.8
2026/04/13 14:48:47.84,IMU,1003.91,7.32,18.55,-1.12,-1.18,1.55,-12.45,45.60,-19.95,27.9
2026/04/13 14:48:47.94,IMU,1008.79,-10.74,10.74,-1.28,-4.37,-0.94,-13.05,46.05,-21.00,27.6
2026/04/13 14:48:48.04,IMU,1010.25,2.44,13.18,0.44,0.55,0.40,-12.45,44.85,-20.25,28.0
2026/04/13 14:48:48.14,IMU,999.51,7.81,-1.46,0.37,-1.32,0.77,-11.55,45.45,-20.10,28.2
2026/04/13 14:48:48.24,IMU,998.05,-3.42,3.42,1.07,10.74,0.28,-12.90,45.15,-20.85,28.2
2026/04/13 14:48:48.34,IMU,1010.74,-22.46,36.62,-1.97,6.86,-0.24,-12.75,46.35,-19.50,27.8
2026/04/13 14:48:48.44,IMU,1003.91,0.98,69.34,-1.77,9.58,-0.53,-12.60,45.15,-18.30,27.9
2026/04/13 14:48:48.54,IMU,1241.70,-100.10,-117.19,-3.69,71.11,-42.51,-11.85,45.15,-20.40,28.0
2026/04/13 14:48:48.64,IMU,826.17,126.95,447.75,-7.48,197.14,-16.83,-11.70,47.55,-11.10,28.0
2026/04/13 14:48:48.74,IMU,743.65,65.92,567.87,5.55,217.92,-0.39,-7.80,47.70,-4.20,27.9
2026/04/13 14:48:48.84,IMU,577.15,107.42,773.93,-4.31,176.62,4.69,-6.60,47.10,-3.30,28.0
2026/04/13 14:48:48.94,IMU,316.41,492.68,993.16,-16.61,106.66,42.02,-3.15,46.95,0.30,28.0
2026/04/13 14:48:49.05,IMU,88.87,-26.37,1034.18,-20.50,48.62,26.42,-2.70,48.30,6.90,28.0
2026/04/13 14:48:49.15,IMU,127.93,-4.88,1023.44,6.49,11.93,14.30,-1.35,46.20,4.95,28.1
2026/04/13 14:48:49.25,IMU,-125.98,1999.94,1999.94,50.18,-126.03,9.24,-1.50,44.55,3.60,28.0
2026/04/13 14:48:49.35,IMU,3.42,4.39,1013.67,-2.61,2.56,-2.80,-0.15,46.35,5.10,28.0
2026/04/13 14:48:49.45,IMU,-9.28,-5.37,1025.39,-0.85,-1.27,0.11,0.15,46.35,4.05,27.8
2026/04/13 14:48:49.55,IMU,7.32,-0.49,1015.63,-2.84,-21.54,-1.44,-0.45,45.60,3.30,28.0
2026/04/13 14:48:49.65,IMU,17.58,-5.86,1041.02,-0.87,-9.92,-3.62,-0.45,45.60,3.30,27.9
2026/04/13 14:48:49.75,IMU,26.37,-30.76,1019.53,5.22,-10.86,-0.38,-0.15,46.35,2.25,28.2
2026/04/13 14:48:49.85,IMU,-3.91,-93.26,1136.72,-7.98,1.52,-3.84,-1.05,44.40,3.15,28.2
2026/04/13 14:48:49.95,IMU,112.79,-30.76,1008.79,-0.64,-9.56,9.02,-0.60,45.90,3.45,27.8
2026/04/13 14:48:50.05,IMU,70.80,-29.30,997.07,-0.69,13.05,3.42,0.60,45.15,3.15,28.0
2026/04/13 14:48:50.15,IMU,17.09,-27.34,1073.73,-1.04,-6.76,-1.91,-0.30,44.70,3.15,27.8
2026/04/13 14:48:50.25,IMU,24.90,-11.72,1050.78,-0.79,-1.34,0.58,0.00,45.45,2.10,28.0
2026/04/13 14:48:50.35,IMU,46.88,1.46,1025.88,-1.56,7.68,0.22,-0.60,44.40,4.20,28.0
2026/04/13 14:48:50.46,IMU,50.29,-13.67,1010.25,-7.29,-11.11,1.68,0.45,46.05,3.30,28.2
2026/04/13 14:48:50.56,IMU,8.79,-55.18,1017.09,1.27,6.07,-0.13,-0.45,45.60,3.30,28.2
2026/04/13 14:48:50.66,IMU,26.37,-25.39,1027.34,-1.11,-3.20,-4.16,-0.60,47.40,3.45,28.0
2026/04/13 14:48:50.76,IMU,33.69,-21.00,1031.74,0.17,-2.39,1.31,0.60,44.40,2.10,27.8
2026/04/13 14:48:50.86,IMU,27.34,-9.28,1024.90,-0.48,-8.69,-0.11,1.05,44.70,3.15,28.0
2026/04/13 14:48:50.96,IMU,31.25,-18.55,1029.30,-0.99,-1.54,-0.60,0.00,45.45,2.40,27.8
2026/04/13 14:48:51.06,IMU,31.25,-35.64,1029.30,1.17,0.50,3.96,0.15,46.80,2.55,27.9
2026/04/13 14:48:51.16,IMU,27.83,-12.70,1039.06,-0.74,2.76,1.62,-1.05,46.65,2.70,28.0
2026/04/13 14:48:51.26,IMU,-34.18,3.42,885.74,-1.98,-2.74,8.04,0.60,45.15,4.20,28.0
2026/04/13 14:48:51.36,IMU,33.20,-14.16,1028.32,-2.38,6.18,-1.53,0.30,44.70,2.70,28.0
2026/04/13 14:48:51.46,IMU,22.46,-17.58,1025.88,-0.09,-5.49,0.23,-0.30,45.15,2.40,28.0
2026/04/13 14:48:51.56,IMU,27.83,-3.91,1039.55,-0.20,-2.05,-0.63,-0.30,44.40,2.70,28.0
2026/04/13 14:48:51.66,IMU,26.86,-13.67,1027.83,0.44,2.28,0.88,-1.05,45.90,2.70,28.0
2026/04/13 14:48:51.77,IMU,22.46,15.63,1086.91,0.93,-5.27,3.01,1.05,43.65,2.10,27.8
2026/04/13 14:48:51.87,IMU,25.39,-10.74,1030.76,0.15,-2.50,0.45,-0.45,45.60,2.55,28.0
2026/04/13 14:48:51.97,IMU,30.76,-10.74,1021.00,0.34,0.89,-0.70,0.15,44.55,3.00,28.0
2026/04/13 14:48:52.07,IMU,18.07,-23.93,1030.76,-0.54,-0.82,-0.20,0.15,45.30,2.25,27.8
2026/04/13 14:48:52.17,IMU,11.72,-4.88,1035.64,0.08,-0.60,1.73,0.30,44.70,3.15,27.6
2026/04/13 14:48:52.27,IMU,19.04,-22.46,1033.20,-1.79,-2.01,-0.42,-0.45,44.85,2.55,28.0
2026/04/13 14:48:52.37,IMU,2.93,-18.07,1035.16,0.07,1.84,1.05,-0.45,45.30,3.30,27.9
2026/04/13 14:48:52.47,IMU,8.30,-27.83,1023.44,0.27,0.60,-1.96,0.15,44.85,2.25,27.8
2026/04/13 14:48:52.57,IMU,13.67,-33.69,1028.32,-1.64,3.26,-1.30,0.30,46.20,2.70,27.8
2026/04/13 14:48:52.67,IMU,12.70,-8.30,1025.39,-0.40,-0.34,2.47,-3.00,43.50,5.70,28.1
2026/04/13 14:48:52.77,IMU,23.44,-21.00,1043.95,0.06,0.02,2.47,-1.95,46.35,3.00,28.0
2026/04/13 14:48:52.87,IMU,11.72,-20.02,1024.90,0.23,-1.20,-0.93,-1.05,44.70,2.70,28.0
2026/04/13 14:48:52.97,IMU,-1.46,-16.60,1017.58,2.66,-0.72,2.02,-0.60,45.45,2.70,28.0
2026/04/13 14:48:53.07,IMU,13.67,-6.84,1018.07,-0.26,-4.75,-1.19,-1.05,44.40,3.15,28.0
2026/04/13 14:48:53.18,IMU,14.16,-8.79,1028.32,-2.82,-1.12,1.30,-1.80,43.20,1.65,28.0
2026/04/13 14:48:53.28,IMU,5.86,-20.51,1035.64,-1.07,-1.70,1.64,0.60,44.70,1.35,27.8
2026/04/13 14:48:53.38,IMU,20.51,-24.41,1034.18,0.56,0.25,0.23,0.30,45.90,2.10,27.6
2026/04/13 14:48:53.48,IMU,7.32,-19.53,1036.13,-1.60,-3.10,-1.76,-1.80,45.15,2.10,27.8
2026/04/13 14:48:53.58,IMU,7.81,-8.30,1039.06,-1.11,2.70,-1.96,-0.60,44.40,2.40,28.0
2026/04/13 14:48:53.68,IMU,7.32,-21.00,1033.20,-1.60,0.01,-0.16,-3.00,42.30,7.95,27.8
2026/04/13 14:48:53.78,IMU,1.46,-33.20,1022.95,-2.29,-0.29,-1.41,0.90,46.35,3.60,28.0
2026/04/13 14:48:53.88,IMU,12.21,-31.74,1023.44,-2.07,-2.92,2.70,-0.15,45.30,2.55,27.9
2026/04/13 14:48:53.98,IMU,7.81,-28.81,1039.55,-0.24,-2.85,0.74,-0.45,44.25,3.00,28.0
2026/04/13 14:48:54.08,IMU,15.63,-15.63,1030.76,-1.89,-0.47,-0.17,-1.20,45.60,2.55,27.8
2026/04/13 14:48:54.18,IMU,22.46,-16.60,1019.04,-0.78,0.43,-0.70,-1.35,45.90,2.10,28.0
2026/04/13 14:48:54.28,IMU,18.07,-16.60,1022.46,-1.48,-2.60,-2.07,-0.30,43.95,1.65,28.0
2026/04/13 14:48:54.38,IMU,19.04,-25.88,1027.34,-0.24,0.59,-0.56,0.15,44.25,2.55,27.8
2026/04/13 14:48:54.48,IMU,19.53,-24.41,1028.81,0.61,0.09,2.87,-0.90,44.55,1.50,27.7
2026/04/13 14:48:54.59,IMU,4.39,-27.83,1038.09,-0.15,2.33,-2.09,0.60,43.95,2.70,27.8
2026/04/13 14:48:54.69,IMU,7.81,-35.16,1026.86,-0.02,-1.53,1.02,-1.05,44.40,1.35,28.0
2026/04/13 14:48:54.79,IMU,5.86,-28.32,1040.04,-2.04,-1.44,0.60,-0.30,44.70,1.65,28.0
2026/04/13 14:48:54.89,IMU,18.07,-12.70,1034.67,-0.04,-1.92,0.75,0.00,44.70,2.10,27.8
2026/04/13 14:48:54.99,IMU,20.02,-40.04,1031.25,-0.94,-0.21,-1.49,0.00,44.70,2.70,27.8
2026/04/13 14:48:55.09,IMU,9.77,-25.39,1016.11,-2.63,-0.58,-0.78,0.45,44.55,3.30,28.0
2026/04/13 14:48:55.19,IMU,12.21,-20.02,1025.39,-0.05,1.92,0.60,-0.90,43.50,2.55,28.1
2026/04/13 14:48:55.29,IMU,7.81,-11.23,1025.88,-1.99,5.34,-2.18,0.45,44.85,3.00,28.2
2026/04/13 14:48:55.39,IMU,19.04,-13.67,1033.20,-0.34,0.78,0.41,-0.90,46.05,1.50,28.2
2026/04/13 14:48:55.49,IMU,-0.49,-12.70,1015.63,-0.60,-1.92,-1.86,-1.05,45.90,2.70,28.0
2026/04/13 14:48:55.59,IMU,-1.95,-16.11,1037.60,0.81,-3.04,2.07,-1.80,44.40,0.60,28.0
2026/04/13 14:48:55.69,IMU,12.21,-26.37,1023.93,0.28,-1.20,1.00,-1.20,43.80,1.20,27.8
2026/04/13 14:48:55.79,IMU,12.21,-7.32,1023.93,-1.98,0.28,0.75,-0.45,44.55,1.50,27.9
2026/04/13 14:48:55.90,IMU,5.86,-22.95,1032.71,-1.14,-3.27,0.40,-0.90,44.85,2.25,28.0
2026/04/13 14:48:56.00,IMU,11.72,-6.35,1029.30,-3.40,-3.05,-3.18,-1.50,45.30,2.25,28.0
2026/04/13 14:48:56.10,IMU,17.09,-13.67,1023.93,-1.24,1.08,2.40,0.45,44.55,1.50,28.0
2026/04/13 14:48:56.20,IMU,1.46,-6.35,1034.67,-0.02,-1.43,1.53,-0.90,44.55,2.55,28.0
2026/04/13 14:48:56.30,IMU,6.35,-18.07,1031.25,-0.11,0.51,-0.80,-0.60,44.40,2.10,28.0
2026/04/13 14:48:56.40,IMU,0.00,-30.27,1030.76,-0.10,-1.66,-0.31,-0.60,43.95,2.10,28.0
2026/04/13 14:48:56.50,IMU,-8.30,-19.53,1039.55,0.18,-0.77,0.81,-1.50,44.25,1.80,27.8
2026/04/13 14:48:56.60,IMU,5.37,-13.18,1034.67,-0.48,-4.99,-1.31,-0.45,45.30,2.25,28.0
2026/04/13 14:48:56.70,IMU,4.39,-22.46,1043.46,-1.90,-2.32,0.11,0.45,43.80,2.25,28.0
2026/04/13 14:48:56.80,IMU,4.88,-21.97,1024.90,-1.19,-3.73,2.66,-0.45,45.30,2.55,28.1
2026/04/13 14:48:56.90,IMU,12.70,-22.95,1012.70,-1.54,5.18,-1.50,-1.35,43.95,1.65,28.0
2026/04/13 14:48:57.00,IMU,19.04,-18.55,1025.39,1.37,0.76,2.16,-1.35,45.45,3.15,27.9
2026/04/13 14:48:57.10,IMU,0.00,-3.91,1037.11,0.18,0.84,2.52,-0.45,45.30,2.55,28.0
2026/04/13 14:48:57.20,IMU,15.14,-29.30,1034.18,-1.20,-3.18,1.40,0.00,43.65,1.65,28.0
2026/04/13 14:48:57.31,IMU,11.72,-13.67,1030.27,1.10,-1.85,2.07,0.15,44.25,1.20,27.9
2026/04/13 14:48:57.41,IMU,15.14,-17.58,1015.63,-1.43,-2.01,1.85,-1.35,44.70,2.40,28.0
2026/04/13 14:48:57.51,IMU,16.60,-19.04,1034.18,-2.78,-4.08,-0.95,-0.60,45.15,0.00,27.9
2026/04/13 14:48:57.61,IMU,8.79,0.00,1021.00,0.63,1.81,-2.80,-1.05,45.15,3.15,28.0
2026/04/13 14:48:57.71,IMU,14.16,-17.09,1028.81,-1.42,-5.18,0.68,-0.30,44.70,1.35,27.7
2026/04/13 14:48:57.81,IMU,13.18,-19.04,1018.07,0.20,-2.53,-0.93,-0.15,44.85,2.25,27.9
2026/04/13 14:48:57.91,IMU,7.32,-19.53,1042.48,-0.70,-1.74,0.31,0.15,45.60,0.75,27.9
2026/04/13 14:48:58.01,IMU,14.16,-11.72,1036.62,-0.44,-1.36,-1.37,-0.15,44.25,2.25,27.9
2026/04/13 14:48:58.11,IMU,21.48,-21.97,1016.11,-1.28,-0.38,-1.50,0.15,44.55,3.00,27.8
2026/04/13 14:48:58.21,IMU,11.72,-3.91,1033.69,0.40,0.76,-0.83,0.60,45.90,1.65,27.9
2026/04/13 14:48:58.31,IMU,27.83,-9.28,1020.51,-2.96,3.73,1.11,-0.15,44.85,3.00,28.0
2026/04/13 14:48:58.41,IMU,22.46,-14.16,1026.37,1.02,-1.52,1.69,-0.30,43.95,1.65,28.1
2026/04/13 14:48:58.51,IMU,15.63,0.49,1097.66,4.44,-5.17,-0.50,-0.60,45.15,1.35,27.9
2026/04/13 14:48:58.61,IMU,35.16,-41.50,1126.95,-5.57,2.95,-2.37,-1.05,45.15,1.05,27.9
2026/04/13 14:48:58.72,IMU,17.58,-90.82,941.89,-7.50,45.05,29.20,1.05,45.90,2.10,28.0
2026/04/13 14:48:58.82,IMU,-219.24,49.32,1114.26,-8.95,63.11,-4.38,-0.45,43.80,7.95,28.1
2026/04/13 14:48:58.92,IMU,-495.12,44.43,709.47,-25.43,250.13,21.87,7.20,45.15,6.30,27.7
2026/04/13 14:48:59.02,IMU,-596.19,-338.87,761.23,-6.67,249.45,-8.89,15.60,44.55,5.70,27.9
2026/04/13 14:48:59.12,IMU,-1046.39,200.20,408.20,-57.49,234.27,33.44,22.80,42.75,1.50,28.0
2026/04/13 14:48:59.22,IMU,-1156.74,-82.03,379.39,10.89,153.92,18.31,24.00,42.75,-1.20,27.9
2026/04/13 14:48:59.32,IMU,-927.73,1.46,141.60,2.69,168.99,-8.82,26.25,44.70,-6.30,27.8
2026/04/13 14:48:59.42,IMU,-875.49,-150.88,-98.63,-8.16,-44.48,4.09,26.85,44.25,-9.30,28.0
2026/04/13 14:48:59.52,IMU,1999.94,1999.94,-2000.00,-52.73,111.32,26.12,24.60,44.55,-8.55,27.9
2026/04/13 14:48:59.62,IMU,-1006.35,-31.25,67.38,-0.02,20.34,-0.50,24.90,45.15,-9.15,27.9
2026/04/13 14:48:59.72,IMU,-1011.23,-18.07,-19.53,-1.15,22.24,-0.73,25.05,45.60,-11.10,28.0
2026/04/13 14:48:59.82,IMU,-994.63,-21.97,1.95,-3.72,-25.04,0.64,21.60,40.65,-5.55,28.0
2026/04/13 14:48:59.92,IMU,-1000.49,-23.44,47.85,-1.70,8.02,2.82,25.80,44.55,-9.60,28.0
2026/04/13 14:49:00.03,IMU,-993.65,-33.69,17.09,0.05,-0.93,2.08,25.05,44.55,-9.60,28.0
2026/04/13 14:49:00.13,IMU,-996.09,-18.07,5.37,-1.48,2.63,1.64,25.50,44.40,-11.25,28.0
2026/04/13 14:49:00.23,IMU,-1010.74,-17.58,-19.53,-1.05,7.37,-3.17,25.05,44.55,-10.65,27.8
2026/04/13 14:49:00.33,IMU,-999.51,-31.74,-29.79,-2.21,2.24,1.05,25.80,44.25,-10.35,28.0
2026/04/13 14:49:00.43,IMU,-992.19,-10.25,-15.14,-0.33,-8.50,-0.81,24.90,44.40,-10.95,27.6
2026/04/13 14:49:00.53,IMU,-1001.46,-10.74,1.95,-0.05,-1.29,2.12,25.80,43.80,-11.10,27.8
2026/04/13 14:49:00.63,IMU,-1009.77,-12.21,-1.95,-3.21,-5.43,2.18,24.90,44.40,-10.20,27.8
2026/04/13 14:49:00.73,IMU,-991.70,-24.90,14.16,-0.66,4.08,-2.19,26.10,44.55,-11.10,28.1
2026/04/13 14:49:00.83,IMU,-985.35,-40.04,-17.09,0.30,4.06,0.71,25.50,45.15,-12.00,28.0
2026/04/13 14:49:00.93,IMU,-1000.49,-27.34,4.88,-0.47,-2.68,0.20,24.45,43.65,-13.05,27.8
2026/04/13 14:49:01.03,IMU,-985.84,-34.67,5.86,0.05,-1.59,-1.05,24.45,43.95,-11.25,28.0
2026/04/13 14:49:01.13,IMU,-1008.30,-34.18,-0.98,0.13,6.42,-1.53,24.90,43.65,-12.60,28.0
2026/04/13 14:49:01.23,IMU,-1005.86,-16.60,-23.93,-1.81,-1.89,-0.10,24.90,42.90,-12.30,28.1
2026/04/13 14:49:01.33,IMU,-998.05,-31.25,1.95,-0.93,-8.23,2.21,25.35,43.05,-11.40,27.9
2026/04/13 14:49:01.44,IMU,-1009.77,-17.58,3.42,-1.75,1.96,-0.65,25.05,44.25,-11.40,27.9
2026/04/13 14:49:01.54,IMU,-996.09,-21.00,12.21,0.18,-3.44,-1.01,24.45,43.65,-11.25,27.9
2026/04/13 14:49:01.64,IMU,-999.51,-21.00,3.91,2.09,5.25,1.15,24.15,43.95,-11.25,27.8
2026/04/13 14:49:01.74,IMU,-1012.70,-21.97,-11.23,-0.31,-3.36,5.60,24.45,42.90,-11.25,27.8
2026/04/13 14:49:01.84,IMU,-1027.34,-18.55,26.86,-0.84,-3.24,1.78,25.05,44.25,-10.65,27.9
2026/04/13 14:49:01.94,IMU,-988.77,-63.96,30.76,0.51,1.92,0.74,26.10,44.25,-11.10,27.8
2026/04/13 14:49:02.04,IMU,-1018.07,-18.55,10.25,-0.67,1.82,0.10,25.35,43.50,-11.10,28.0
2026/04/13 14:49:02.14,IMU,-1017.58,-19.53,12.21,-0.53,-1.63,-1.50,24.30,42.30,-11.40,28.0
2026/04/13 14:49:02.24,IMU,-982.42,-28.32,2.44,-3.17,-4.83,1.23,23.55,42.00,-11.10,28.0
2026/04/13 14:49:02.34,IMU,-1007.81,-34.67,25.88,-0.54,0.32,-0.52,24.30,43.80,-11.10,28.0
2026/04/13 14:49:02.44,IMU,-1006.84,-32.71,-6.84,-0.67,-0.26,-2.55,25.50,43.95,-10.50,28.0
2026/04/13 14:49:02.54,IMU,-996.09,-27.34,3.91,-0.92,-1.89,0.98,25.20,43.65,-12.00,27.8
2026/04/13 14:49:02.64,IMU,-1014.65,-30.76,-0.49,-1.96,1.30,2.22,24.60,43.80,-10.65,27.9
2026/04/13 14:49:02.74,IMU,-1000.00,-32.23,-1.46,-3.20,-1.20,-4.53,25.05,42.75,-11.40,27.9
2026/04/13 14:49:02.85,IMU,-1001.95,-17.58,-11.23,0.08,0.42,0.44,24.45,43.65,-11.25,27.8
2026/04/13 14:49:02.95,IMU,-1001.95,-30.27,-10.74,-1.27,6.67,0.98,25.80,44.55,-12.15,27.6
2026/04/13 14:49:03.05,IMU,-1001.46,-29.79,-14.16,-1.50,-4.75,-1.13,24.90,43.20,-11.25,27.8
2026/04/13 14:49:03.15,IMU,-994.14,-32.23,5.37,-1.21,-1.39,1.35,25.05,43.80,-10.35,28.0
2026/04/13 14:49:03.25,IMU,-1004.39,-19.04,-1.95,0.07,1.26,-0.53,25.50,43.95,-10.50,28.0
2026/04/13 14:49:03.35,IMU,-993.16,-22.46,-18.55,0.08,-1.79,0.85,24.90,43.65,-10.95,28.0
2026/04/13 14:49:03.45,IMU,-1012.21,-29.79,-15.14,-0.54,-4.53,0.97,24.45,43.95,-11.25,27.8
2026/04/13 14:49:03.55,IMU,-1011.72,-18.07,-2.93,0.11,-2.11,3.50,24.45,43.20,-10.95,27.9
2026/04/13 14:49:03.65,IMU,-986.33,-30.76,-6.35,-2.57,-1.56,0.23,25.50,43.65,-12.00,28.0
2026/04/13 14:49:03.75,IMU,-999.02,-22.46,-10.74,0.02,-3.78,0.35,25.35,43.50,-11.40,27.9
2026/04/13 14:49:03.85,IMU,-997.56,-29.79,2.44,0.34,-2.22,-0.49,25.20,42.45,-11.25,27.7
2026/04/13 14:49:03.95,IMU,-997.07,-40.53,1.46,-0.67,1.67,-0.75,25.20,43.65,-10.20,27.8
2026/04/13 14:49:04.05,IMU,-1009.77,-10.25,-1.95,-0.03,-1.20,0.95,25.80,43.50,-12.15,28.1
2026/04/13 14:49:04.15,IMU,-992.68,-17.09,-5.37,-0.15,-2.08,1.11,25.35,46.35,-11.40,28.0
2026/04/13 14:49:04.26,IMU,-1005.37,-20.02,-0.98,-2.85,-0.56,-0.31,24.15,44.70,-12.00,27.6
2026/04/13 14:49:04.36,IMU,-1017.58,-8.30,-85.94,-1.95,-13.42,2.29,24.30,43.80,-10.65,27.8
2026/04/13 14:49:04.46,IMU,-1021.00,-32.71,25.39,1.53,-5.15,-0.03,24.15,44.70,-10.20,28.3
2026/04/13 14:49:04.56,IMU,-1001.95,-17.58,8.79,-0.02,4.15,0.69,24.90,45.15,-10.20,27.8
2026/04/13 14:49:04.66,IMU,-989.26,-22.95,19.04,-2.04,-3.25,-1.13,25.05,44.25,-12.45,28.0
2026/04/13 14:49:04.76,IMU,-997.56,-20.51,8.79,0.66,-0.24,1.87,24.90,43.20,-9.90,28.0
2026/04/13 14:49:04.86,IMU,-1006.35,-38.57,12.70,-0.52,-3.64,1.56,24.90,42.90,-10.50,28.0
2026/04/13 14:49:04.96,IMU,-1006.84,-21.00,13.67,0.47,0.83,-1.45,23.40,43.95,-10.20,28.0
2026/04/13 14:49:05.06,IMU,-999.51,-20.51,15.14,1.50,-0.52,0.15,25.05,43.50,-10.65,27.8
2026/04/13 14:49:05.16,IMU,-1008.79,-38.57,8.30,-0.65,-0.96,-1.38,24.00,43.80,-11.40,27.9
2026/04/13 14:49:05.26,IMU,-996.58,-41.50,26.37,-0.63,-9.11,0.48,24.45,45.45,-11.55,28.1
2026/04/13 14:49:05.36,IMU,-1003.42,-31.25,31.25,-1.42,0.97,1.02,24.30,42.75,-10.65,27.7
2026/04/13 14:49:05.46,IMU,-1002.44,-15.14,27.83,-0.88,-0.27,1.22,25.95,43.65,-11.25,27.8
2026/04/13 14:49:05.57,IMU,-1002.93,-21.97,23.93,-0.38,3.11,0.27,24.60,44.25,-12.15,27.9
2026/04/13 14:49:05.67,IMU,-1000.98,-15.63,2.44,-0.15,-0.46,-1.26,24.90,43.95,-11.25,27.9
2026/04/13 14:49:05.77,IMU,-1000.49,-22.95,22.46,-2.02,-1.77,-0.17,24.00,44.85,-10.35,28.0
2026/04/13 14:49:05.87,IMU,-1002.93,-11.23,5.37,-2.63,2.68,0.33,24.30,43.80,-11.10,28.0
2026/04/13 14:49:05.97,IMU,-999.02,-27.83,7.32,1.92,2.06,1.89,20.25,42.00,-7.50,27.9
2026/04/13 14:49:06.07,IMU,-1005.86,-14.65,25.39,-0.13,8.63,-1.24,24.15,43.65,-11.55,27.9
2026/04/13 14:49:06.17,IMU,-997.56,-21.00,18.55,0.76,-8.40,4.18,25.80,44.25,-11.40,28.0
2026/04/13 14:49:06.27,IMU,-995.61,-23.44,20.51,-1.70,5.28,1.70,24.30,43.05,-10.65,27.8
2026/04/13 14:49:06.37,IMU,-1003.42,-23.93,-0.49,0.46,0.26,3.46,24.30,43.05,-12.15,27.5
2026/04/13 14:49:06.47,IMU,-998.05,-15.63,6.84,-0.70,-2.53,-1.95,24.60,43.05,-11.40,28.0
2026/04/13 14:49:06.57,IMU,-992.19,-28.81,24.90,0.82,-2.75,0.70,26.10,44.25,-11.40,28.0
2026/04/13 14:49:06.67,IMU,-998.05,-30.76,-0.98,-0.03,-0.10,-1.42,24.45,43.20,-11.55,28.0
2026/04/13 14:49:06.77,IMU,-1000.49,-27.34,8.79,-2.56,-3.21,1.16,24.45,43.20,-10.50,28.0
2026/04/13 14:49:06.88,IMU,-1008.79,-19.04,10.25,-0.19,-3.75,-1.24,25.20,43.65,-9.15,28.0
2026/04/13 14:49:06.98,IMU,-994.14,-18.55,13.18,-1.45,2.33,0.34,26.10,43.50,-11.85,28.0
2026/04/13 14:49:07.08,IMU,-986.33,-20.51,8.79,-1.48,-0.05,-0.40,24.90,43.95,-9.15,27.7
2026/04/13 14:49:07.18,IMU,-1005.86,-30.27,22.95,-0.24,-5.02,2.44,25.80,43.50,-9.30,27.7
2026/04/13 14:49:07.28,IMU,-983.40,-19.53,10.74,-2.83,1.41,0.96,25.05,44.55,-10.35,28.0
2026/04/13 14:49:07.38,IMU,-1001.46,-16.11,19.04,-0.10,0.20,-0.96,24.15,42.90,-11.25,28.0
2026/04/13 14:49:07.48,IMU,-993.16,-30.76,12.70,0.07,2.82,0.03,24.90,43.95,-9.90,27.7
2026/04/13 14:49:07.58,IMU,-1016.60,-23.44,9.77,-2.66,0.82,1.30,25.35,43.80,-10.35,27.6
2026/04/13 14:49:07.68,IMU,-1012.21,-26.37,5.37,-0.37,-0.63,-1.31,24.00,43.05,-9.30,27.9
2026/04/13 14:49:07.78,IMU,-1003.91,-19.04,21.48,-0.95,1.79,0.71,25.20,44.40,-10.95,27.8
2026/04/13 14:49:07.88,IMU,-994.14,-21.48,8.30,-0.89,1.19,0.76,25.35,44.25,-10.05,28.0
2026/04/13 14:49:07.98,IMU,-977.54,-21.97,3.91,-1.50,-5.32,0.24,25.50,43.95,-9.90,28.0
2026/04/13 14:49:08.08,IMU,-1000.98,-21.48,20.51,-1.07,-0.73,-2.95,24.45,44.40,-10.95,27.9
2026/04/13 14:49:08.18,IMU,-1008.79,-34.18,22.95,-0.66,-0.37,2.17,24.30,43.50,-10.05,28.0
2026/04/13 14:49:08.29,IMU,-999.02,-18.55,26.86,-1.66,-2.15,-0.11,25.05,43.50,-11.40,28.0
2026/04/13 14:49:08.39,IMU,-1003.91,-16.60,20.02,1.08,6.15,1.14,25.50,43.65,-10.95,28.0
2026/04/13 14:49:08.49,IMU,-996.09,-28.81,5.86,-0.92,-5.66,-2.40,25.05,44.55,-11.10,27.8
2026/04/13 14:49:08.59,IMU,-1008.79,-29.30,35.64,-1.87,-6.17,0.68,25.95,44.40,-12.30,28.0
2026/04/13 14:49:08.69,IMU,-1005.86,-21.97,42.97,0.17,0.24,0.95,24.60,44.25,-10.05,27.6
2026/04/13 14:49:08.79,IMU,-1010.25,-32.23,-135.74,-0.85,10.05,0.65,25.20,44.40,-12.30,28.0
2026/04/13 14:49:08.89,IMU,-1110.35,-58.59,44.43,37.19,-74.34,21.95,24.45,42.90,-13.80,27.8
2026/04/13 14:49:08.99,IMU,-1107.91,264.16,289.55,67.05,-97.11,111.53,21.45,44.25,-12.90,27.7
2026/04/13 14:49:09.09,IMU,-722.66,305.66,359.86,154.31,-207.14,138.66,14.40,48.45,-14.10,27.6
2026/04/13 14:49:09.19,IMU,-559.57,498.05,559.08,201.90,-103.60,121.31,7.80,48.45,-25.05,27.8
2026/04/13 14:49:09.29,IMU,-445.31,707.03,154.30,67.78,-83.09,72.37,3.15,45.15,-32.85,28.0
2026/04/13 14:49:09.39,IMU,-217.29,788.09,526.37,43.68,-153.15,60.18,2.25,42.75,-36.90,28.0
2026/04/13 14:49:09.49,IMU,-130.37,920.41,240.72,34.47,-90.43,16.29,3.90,42.45,-38.10,28.0
2026/04/13 14:49:09.59,IMU,-86.91,950.20,160.64,71.09,-4.40,17.95,6.60,40.05,-41.85,27.9
2026/04/13 14:49:09.70,IMU,-49.32,1002.93,149.41,37.37,10.24,5.83,3.75,37.20,-43.65,28.0
2026/04/13 14:49:09.80,IMU,-263.18,895.02,-95.21,14.86,-32.73,12.03,6.45,35.10,-46.65,28.0
2026/04/13 14:49:09.90,IMU,-73.73,1045.41,-3.42,21.66,33.70,12.36,4.95,34.35,-46.35,28.1
2026/04/13 14:49:10.00,IMU,-265.63,812.50,418.95,-25.76,-24.60,7.98,5.10,32.40,-47.85,28.0
2026/04/13 14:49:10.10,IMU,214.84,1434.57,230.47,4.54,-74.34,-3.32,4.95,31.35,-50.55,28.0
2026/04/13 14:49:10.20,IMU,-37.60,996.58,-112.79,-1.24,-3.70,1.85,6.30,31.95,-50.40,27.8
2026/04/13 14:49:10.30,IMU,-2.93,862.79,450.68,2.31,18.10,1.99,4.50,31.95,-51.00,27.8
2026/04/13 14:49:10.40,IMU,-1.95,939.94,-14.16,-14.57,6.69,-2.19,4.20,31.05,-50.85,28.0
2026/04/13 14:49:10.50,IMU,-17.58,991.21,106.45,-0.25,0.12,1.79,4.50,31.20,-50.40,27.9
2026/04/13 14:49:10.60,IMU,-40.53,991.21,27.83,0.57,-3.05,0.01,5.55,30.15,-51.45,28.0
2026/04/13 14:49:10.70,IMU,-26.37,989.26,93.26,-3.30,2.88,1.02,4.80,30.90,-50.70,27.9
2026/04/13 14:49:10.80,IMU,96.68,1032.71,-103.03,-3.78,20.00,2.92,5.70,31.05,-51.30,28.0
2026/04/13 14:49:10.90,IMU,-28.32,993.65,43.95,-1.32,1.33,-1.60,5.10,31.95,-51.75,27.8
2026/04/13 14:49:11.01,IMU,-42.48,973.63,53.71,-4.35,3.03,-1.18,5.70,32.10,-49.05,28.0
2026/04/13 14:49:11.11,IMU,-27.34,983.89,89.84,-0.73,-2.84,1.12,0.30,28.80,-46.95,28.0
2026/04/13 14:49:11.21,IMU,-30.76,992.68,72.27,-0.41,0.91,-0.54,5.10,31.95,-50.40,28.0
2026/04/13 14:49:11.31,IMU,-10.25,985.84,53.22,-1.07,-0.50,-3.04,4.50,33.00,-49.65,28.0
2026/04/13 14:49:11.41,IMU,-24.41,991.70,36.62,-1.06,-0.37,-1.60,5.10,30.45,-49.65,27.9
2026/04/13 14:49:11.51,IMU,-24.90,978.03,62.01,-1.34,-1.18,3.40,4.95,31.05,-50.25,28.2
2026/04/13 14:49:11.61,IMU,-7.81,983.40,20.02,-1.03,-2.21,0.23,4.50,33.00,-51.00,28.0
2026/04/13 14:49:11.71,IMU,-23.44,980.47,58.59,-2.18,-0.98,-0.03,3.90,30.60,-49.80,27.9
2026/04/13 14:49:11.81,IMU,-11.72,973.14,58.11,-2.09,-1.52,2.40,4.50,33.00,-49.65,28.0
2026/04/13 14:49:11.91,IMU,-23.44,1000.98,48.34,-4.68,-2.38,3.41,4.80,31.95,-50.40,27.8
2026/04/13 14:49:12.01,IMU,-13.67,971.68,58.59,3.60,-0.05,2.52,4.65,32.10,-51.30,28.0
2026/04/13 14:49:12.12,IMU,-27.83,984.86,78.12,-0.78,0.54,0.10,0.30,28.50,-44.10,28.2
2026/04/13 14:49:12.22,IMU,-14.65,990.23,50.78,-0.48,-0.70,3.15,5.55,31.95,-49.35,28.0
2026/04/13 14:49:12.32,IMU,-12.21,994.14,76.66,-1.11,-0.49,-0.21,4.95,32.85,-50.25,28.0
2026/04/13 14:49:12.42,IMU,-12.70,988.77,53.22,0.02,-2.14,0.15,4.20,32.10,-50.25,27.9
2026/04/13 14:49:12.52,IMU,-21.00,980.47,64.94,-1.18,-0.86,2.31,5.55,31.20,-51.00,27.9
2026/04/13 14:49:12.62,IMU,-29.30,989.75,61.04,1.92,-1.33,-2.63,4.50,31.65,-49.95,28.0
2026/04/13 14:49:12.72,IMU,-24.90,979.98,35.16,2.35,-0.69,-2.10,3.30,31.95,-50.40,27.8
2026/04/13 14:49:12.82,IMU,-13.67,980.96,64.45,-1.46,2.39,0.80,4.05,33.00,-49.95,28.0
2026/04/13 14:49:12.92,IMU,-31.25,993.65,80.08,-0.31,-4.01,0.04,4.05,31.95,-49.35,27.9
2026/04/13 14:49:13.02,IMU,-37.11,981.93,62.01,2.07,0.20,4.22,4.95,30.30,-50.55,28.0
2026/04/13 14:49:13.12,IMU,-26.37,979.00,56.64,-1.61,-0.98,-0.21,6.45,30.30,-50.85,28.0
2026/04/13 14:49:13.22,IMU,-22.46,983.40,56.64,-1.04,-0.88,-1.81,3.60,31.80,-50.55,27.9
2026/04/13 14:49:13.32,IMU,-24.90,984.38,63.96,-1.48,-2.65,1.02,3.30,32.40,-50.40,28.0
2026/04/13 14:49:13.43,IMU,-19.53,976.07,45.90,-1.07,1.17,1.56,6.30,31.20,-50.70,27.9
2026/04/13 14:49:13.53,IMU,-6.35,986.82,56.64,-0.26,-0.67,0.11,4.50,32.40,-50.70,27.8
2026/04/13 14:49:13.63,IMU,-10.74,976.07,61.04,-0.24,2.75,-2.08,4.95,32.10,-49.50,28.1
2026/04/13 14:49:13.73,IMU,-25.39,983.40,63.96,-2.17,0.76,-0.70,5.10,31.95,-51.45,28.0
2026/04/13 14:49:13.83,IMU,-19.04,990.23,41.50,-2.78,-1.47,0.84,4.20,32.55,-49.05,27.8
2026/04/13 14:49:13.93,IMU,-27.34,986.82,48.34,0.80,-0.05,2.03,5.55,31.65,-48.60,27.8
2026/04/13 14:49:14.03,IMU,-4.88,977.05,70.80,0.53,-0.03,0.14,4.05,31.65,-48.90,28.0
2026/04/13 14:49:14.13,IMU,-20.02,978.03,57.62,0.77,0.79,-3.77,4.65,32.55,-50.25,28.0
2026/04/13 14:49:14.23,IMU,-19.53,992.68,37.60,0.35,-0.07,1.28,4.95,32.85,-50.25,27.8
2026/04/13 14:49:14.33,IMU,-16.60,996.58,52.73,-0.95,-2.44,-1.02,5.85,32.70,-50.40,27.9
2026/04/13 14:49:14.43,IMU,-12.21,994.63,37.60,-1.24,-0.99,0.74,4.65,33.30,-49.80,28.0
2026/04/13 14:49:14.53,IMU,-28.32,975.10,68.85,1.59,-2.14,4.95,5.10,31.20,-50.40,28.0
2026/04/13 14:49:14.63,IMU,-23.44,984.38,67.38,-2.69,-1.27,0.31,4.05,31.20,-51.45,28.0
2026/04/13 14:49:14.73,IMU,-21.00,992.19,62.01,1.58,-1.05,0.06,4.80,30.90,-50.40,27.6
2026/04/13 14:49:14.84,IMU,-20.02,989.75,64.94,-0.44,-0.43,0.32,3.90,32.10,-49.80,28.0
2026/04/13 14:49:14.94,IMU,-14.16,995.12,51.76,-1.54,-2.04,-1.27,5.55,32.70,-48.90,27.9
2026/04/13 14:49:15.04,IMU,-25.39,993.16,51.76,0.12,0.64,-3.63,3.90,31.80,-49.50,27.7
2026/04/13 14:49:15.14,IMU,-21.97,973.63,58.11,-2.66,-1.37,2.69,6.00,31.80,-49.50,28.0
2026/04/13 14:49:15.24,IMU,-25.88,975.59,57.62,-2.86,0.10,2.34,4.50,30.90,-49.65,27.8
2026/04/13 14:49:15.34,IMU,-21.48,987.30,58.59,-0.27,1.51,-1.20,5.70,31.35,-49.50,28.0
2026/04/13 14:49:15.44,IMU,-11.72,987.30,69.34,1.07,-2.45,2.56,5.40,32.10,-49.80,27.9
2026/04/13 14:49:15.54,IMU,-21.00,982.91,67.38,-2.27,1.60,2.27,4.95,32.10,-50.25,28.0
2026/04/13 14:49:15.64,IMU,-19.53,979.98,62.50,-1.64,-0.45,1.56,4.95,31.05,-49.50,28.0
2026/04/13 14:49:15.74,IMU,-36.13,986.33,54.20,-1.22,-0.07,1.18,5.40,32.85,-51.60,28.0
2026/04/13 14:49:15.84,IMU,-18.55,986.82,49.32,-1.05,-1.98,0.08,3.30,31.20,-50.70,28.1
2026/04/13 14:49:15.94,IMU,-14.16,988.77,51.76,-1.79,-0.52,-0.15,4.50,31.95,-49.35,27.9
2026/04/13 14:49:16.04,IMU,-22.95,979.98,51.76,0.15,-0.53,0.91,4.20,31.80,-51.30,27.6
2026/04/13 14:49:16.15,IMU,-16.60,991.21,63.96,-0.66,-2.48,-0.95,4.65,32.85,-49.50,27.8
2026/04/13 14:49:16.25,IMU,-11.23,998.54,74.71,1.85,1.62,0.14,5.10,30.90,-50.40,27.8
2026/04/13 14:49:16.35,IMU,-21.48,996.58,47.36,3.24,-0.53,0.98,5.40,30.60,-50.25,27.9
2026/04/13 14:49:16.45,IMU,-16.11,989.75,58.11,0.11,-1.24,-3.15,4.80,31.95,-50.40,28.1
2026/04/13 14:49:16.55,IMU,-18.55,985.35,49.32,0.98,-1.22,0.20,4.20,31.35,-49.50,28.0
2026/04/13 14:49:16.65,IMU,-38.57,992.68,58.59,-0.79,-0.46,0.55,4.50,31.95,-49.95,27.8
2026/04/13 14:49:16.75,IMU,-19.53,981.93,37.60,-0.22,-0.95,-1.21,3.15,31.80,-49.50,28.0
2026/04/13 14:49:16.85,IMU,-23.44,988.77,20.02,-1.85,-0.18,-0.35,5.10,32.40,-51.00,27.9
2026/04/13 14:49:16.95,IMU,-16.60,989.75,72.27,-3.58,0.82,0.31,4.80,31.95,-51.00,28.0
2026/04/13 14:49:17.05,IMU,-29.79,978.03,56.64,-1.20,-3.44,1.28,5.10,31.65,-49.95,27.7
2026/04/13 14:49:17.15,IMU,-26.86,982.42,65.92,2.81,0.68,-2.15,4.95,31.35,-49.05,28.0
2026/04/13 14:49:17.25,IMU,-24.90,983.89,42.48,-2.83,-0.62,1.44,0.60,28.80,-44.85,27.8
2026/04/13 14:49:17.35,IMU,-18.55,972.66,144.04,-1.12,0.21,0.47,4.05,31.65,-50.40,28.0
2026/04/13 14:49:17.45,IMU,-20.51,987.79,69.34,-0.16,-2.92,0.92,3.30,31.65,-49.95,28.0
2026/04/13 14:49:17.56,IMU,-18.07,984.38,47.36,-0.90,-1.39,-0.81,3.75,30.90,-49.95,28.0
2026/04/13 14:49:17.66,IMU,-16.60,1001.95,66.89,-0.31,-1.24,3.47,3.75,33.75,-49.95,28.0
2026/04/13 14:49:17.76,IMU,-26.37,975.59,53.71,-3.18,0.24,-0.01,5.40,31.35,-49.50,28.1
2026/04/13 14:49:17.86,IMU,-33.20,995.12,57.62,-1.36,-1.59,-1.56,4.80,32.70,-49.65,28.0
2026/04/13 14:49:17.96,IMU,-18.55,976.56,60.55,-1.22,-0.54,1.55,4.50,31.95,-49.65,27.8
2026/04/13 14:49:18.06,IMU,-21.48,992.68,47.36,-1.52,0.91,-1.32,5.55,31.95,-50.40,27.9
2026/04/13 14:49:18.16,IMU,-12.21,994.63,42.48,-0.97,0.35,1.89,4.20,31.35,-51.30,27.9
2026/04/13 14:49:18.26,IMU,-17.58,978.52,59.08,-2.63,0.22,-1.41,1.50,30.90,-44.70,27.8
2026/04/13 14:49:18.36,IMU,-33.20,979.98,57.62,-2.57,-1.26,1.76,4.95,31.80,-50.25,28.0
2026/04/13 14:49:18.46,IMU,-27.83,988.77,59.08,-4.76,-0.31,-0.08,4.80,32.40,-48.90,27.8
2026/04/13 14:49:18.56,IMU,409.18,854.49,11.23,-49.13,-8.08,-70.66,5.40,32.10,-48.45,28.0
2026/04/13 14:49:18.66,IMU,-627.44,856.93,338.87,26.61,-35.11,-234.66,15.45,35.10,-43.80,28.1
2026/04/13 14:49:18.76,IMU,-708.98,269.53,125.00,9.80,-1.08,-250.14,23.70,29.25,-45.30,28.0
2026/04/13 14:49:18.86,IMU,-1094.73,89.36,58.11,16.00,50.84,-237.78,29.70,17.55,-46.50,27.7
2026/04/13 14:49:18.97,IMU,-1175.78,-354.49,-108.89,37.32,51.15,-204.95,27.00,5.10,-49.80,27.9
2026/04/13 14:49:19.07,IMU,-927.73,-371.09,-167.48,-48.82,11.54,-158.73,24.90,-1.80,-50.55,27.9
2026/04/13 14:49:19.17,IMU,-784.18,-444.82,-192.87,-50.77,-26.88,-44.88,23.10,-1.80,-50.25,28.0
2026/04/13 14:49:19.27,IMU,-1091.80,-594.73,11.72,36.10,-51.07,-55.31,21.90,-2.10,-51.60,28.0
2026/04/13 14:49:19.37,IMU,-623.54,-349.61,-283.69,155.67,-120.03,-219.57,21.75,-13.05,-47.85,27.7
2026/04/13 14:49:19.47,IMU,-176.27,-691.41,87.40,13.09,15.15,-116.79,16.65,-21.15,-42.60,27.7
2026/04/13 14:49:19.57,IMU,-94.73,-1093.26,244.14,-78.40,50.16,-67.41,10.95,-21.60,-43.35,27.9
2026/04/13 14:49:19.67,IMU,4.39,-1026.86,98.14,2.79,-10.87,-31.54,7.35,-18.30,-43.95,27.8
2026/04/13 14:49:19.77,IMU,-3.91,-969.73,47.85,-55.11,7.86,8.94,6.75,-18.45,-45.60,28.0
2026/04/13 14:49:19.87,IMU,-2.93,-840.33,-23.44,-30.73,-3.36,-6.40,7.20,-13.95,-48.00,27.8
2026/04/13 14:49:19.97,IMU,-6.35,-1034.67,-10.74,23.62,-33.66,-6.43,7.65,-14.25,-46.80,27.9
2026/04/13 14:49:20.07,IMU,-10.25,-1027.34,75.20,-21.80,1.95,0.03,6.75,-16.20,-45.90,27.9
2026/04/13 14:49:20.17,IMU,2.93,-1014.16,-46.88,-5.15,15.37,-1.10,7.20,-15.15,-47.70,27.8
2026/04/13 14:49:20.28,IMU,14.16,-1006.84,54.69,-0.63,0.81,-0.23,7.80,-15.45,-46.95,28.1
2026/04/13 14:49:20.38,IMU,82.52,-1003.91,-6.84,-17.24,-1.50,-1.33,8.25,-14.70,-46.95,27.8
2026/04/13 14:49:20.48,IMU,22.95,-994.63,-103.52,-1.47,-3.02,0.50,6.60,-16.80,-47.10,28.1
2026/04/13 14:49:20.58,IMU,-12.21,-1015.63,92.77,1.39,-1.53,1.37,6.45,-15.45,-48.00,28.0
2026/04/13 14:49:20.68,IMU,9.77,-1012.70,36.13,-3.13,-1.60,-0.85,6.75,-16.20,-46.65,28.0
2026/04/13 14:49:20.78,IMU,15.14,-1009.28,-12.70,0.85,0.11,-2.75,6.00,-15.45,-47.40,28.0
2026/04/13 14:49:20.88,IMU,3.91,-1014.65,36.62,0.03,-1.60,-0.04,5.85,-14.55,-47.55,28.3
2026/04/13 14:49:20.98,IMU,-24.41,-1008.30,49.32,-0.38,-4.12,0.18,6.60,-14.85,-46.80,27.9
2026/04/13 14:49:21.08,IMU,48.34,-1020.51,-97.66,0.07,0.62,2.63,7.35,-15.30,-48.30,27.6
2026/04/13 14:49:21.18,IMU,72.75,-995.12,-150.88,-1.21,8.73,5.53,7.80,-16.95,-47.70,27.8
2026/04/13 14:49:21.28,IMU,-16.11,-1009.77,49.80,-3.39,-0.59,-0.31,6.45,-15.15,-46.95,27.7
2026/04/13 14:49:21.38,IMU,16.11,-1006.84,40.53,-1.40,0.44,1.15,7.20,-16.20,-47.40,28.0
2026/04/13 14:49:21.48,IMU,1.95,-1008.30,20.02,0.53,-3.67,0.17,7.80,-16.65,-46.95,28.0
2026/04/13 14:49:21.58,IMU,12.21,-1018.07,26.37,-0.60,-0.72,-0.75,7.65,-16.35,-46.50,28.1
2026/04/13 14:49:21.69,IMU,-4.39,-1008.79,11.23,1.88,-1.83,-2.03,7.80,-16.95,-45.90,28.0
2026/04/13 14:49:21.79,IMU,10.74,-1006.84,36.13,-2.29,-1.51,0.91,8.10,-16.05,-47.10,27.9
2026/04/13 14:49:21.89,IMU,6.35,-1015.63,41.99,-4.86,-0.99,-0.64,7.50,-15.90,-47.70,27.9
2026/04/13 14:49:21.99,IMU,7.81,-1024.90,15.63,-4.04,-2.51,1.95,7.20,-15.15,-48.00,28.0
2026/04/13 14:49:22.09,IMU,0.98,-1024.90,12.70,-0.98,-3.29,0.00,8.25,-13.95,-46.65,28.0
2026/04/13 14:49:22.19,IMU,-3.91,-1012.21,-125.98,-0.78,0.06,3.34,7.50,-15.90,-47.40,27.9
2026/04/13 14:49:22.29,IMU,15.63,-1010.25,25.39,-1.83,-3.07,-1.12,6.90,-15.60,-47.85,27.8
2026/04/13 14:49:22.39,IMU,7.81,-1008.30,22.46,-1.19,-2.44,1.64,6.45,-15.90,-46.95,28.0
2026/04/13 14:49:22.49,IMU,7.81,-1008.30,-5.37,-1.34,-0.15,-2.05,6.90,-14.25,-46.80,28.0
2026/04/13 14:49:22.59,IMU,20.02,-1003.42,11.72,-3.63,-0.34,1.79,7.80,-17.40,-46.95,27.9
2026/04/13 14:49:22.69,IMU,18.07,-1002.93,7.81,-0.69,0.06,-1.11,6.90,-14.85,-47.55,27.8
2026/04/13 14:49:22.79,IMU,20.02,-1007.81,15.63,-0.22,-0.79,-0.28,7.80,-16.20,-46.65,27.9
2026/04/13 14:49:22.89,IMU,-24.41,-1032.23,637.21,-4.49,1.96,-1.18,6.00,-15.15,-47.70,28.1
2026/04/13 14:49:22.99,IMU,-21.00,-1019.04,-69.82,-2.95,0.02,0.50,8.10,-16.35,-45.45,27.9
2026/04/13 14:49:23.10,IMU,27.34,-1008.79,31.74,0.61,-1.19,2.53,7.65,-16.80,-46.80,28.0
2026/04/13 14:49:23.20,IMU,1.46,-1010.25,50.29,-0.63,0.40,0.30,10.20,-17.10,-45.00,28.0
2026/04/13 14:49:23.30,IMU,9.77,-1015.14,60.55,-2.41,0.03,-0.81,11.10,-18.00,-44.85,28.1
2026/04/13 14:49:23.40,IMU,3.42,-1016.11,25.88,-0.89,2.37,-3.08,9.90,-19.05,-46.50,28.0
2026/04/13 14:49:23.50,IMU,0.49,-1012.21,21.00,-1.29,0.40,-0.85,9.45,-17.85,-45.00,28.1
2026/04/13 14:49:23.60,IMU,5.86,-1008.30,27.34,1.87,-0.39,1.05,9.15,-17.10,-46.05,27.7
2026/04/13 14:49:23.70,IMU,2.44,-1010.74,18.07,0.32,-2.97,1.80,10.05,-16.20,-45.60,28.0
2026/04/13 14:49:23.80,IMU,5.86,-1005.86,5.37,0.82,-0.51,0.90,9.60,-16.65,-44.55,27.9
2026/04/13 14:49:23.90,IMU,10.25,-1016.60,30.76,-3.37,0.95,-0.76,9.90,-17.10,-45.00,27.7
2026/04/13 14:49:24.00,IMU,8.30,-1000.49,10.74,-2.25,-1.25,1.82,9.45,-18.30,-45.00,28.0
2026/04/13 14:49:24.10,IMU,19.04,-1004.88,28.32,1.18,-0.43,0.63,9.15,-16.05,-45.00,28.0
2026/04/13 14:49:24.20,IMU,17.09,-997.07,31.74,0.05,-0.15,-0.50,10.95,-17.55,-46.50,28.0
2026/04/13 14:49:24.30,IMU,9.28,-1000.98,30.27,0.49,-0.22,0.47,10.20,-18.30,-45.00,28.0
2026/04/13 14:49:24.41,IMU,-4.39,-996.58,47.36,0.38,1.34,0.61,7.35,-20.10,-39.75,28.1
2026/04/13 14:49:24.51,IMU,21.48,-1005.86,25.39,-0.05,-3.45,3.03,10.35,-17.70,-45.60,28.0
2026/04/13 14:49:24.61,IMU,16.60,-1015.14,15.63,-0.33,-2.75,0.98,10.95,-18.60,-45.00,28.2
2026/04/13 14:49:24.71,IMU,13.67,-1000.49,-5.86,-0.97,-0.73,2.05,10.05,-17.70,-45.60,27.9
2026/04/13 14:49:24.81,IMU,6.84,-1001.95,41.50,0.31,-0.15,-1.00,9.90,-17.55,-45.45,27.9
2026/04/13 14:49:24.91,IMU,15.14,-990.72,19.53,1.75,2.32,-0.37,10.95,-17.55,-46.50,27.9
2026/04/13 14:49:25.01,IMU,15.14,-1018.07,26.37,-1.23,-2.73,3.07,10.50,-15.30,-45.75,27.9
2026/04/13 14:49:25.11,IMU,-2.44,-1004.39,27.34,-1.86,-2.37,-1.44,9.60,-17.70,-45.30,28.0
2026/04/13 14:49:25.21,IMU,18.55,-1013.67,9.28,-2.98,0.31,1.41,11.10,-17.40,-46.95,28.1
2026/04/13 14:49:25.31,IMU,11.23,-1013.67,-17.09,-3.39,-0.60,1.37,10.80,-18.45,-46.35,28.0
2026/04/13 14:49:25.41,IMU,15.14,-1005.37,21.48,-0.15,-3.01,2.39,10.80,-17.70,-45.60,28.2
2026/04/13 14:49:25.51,IMU,0.49,-1012.21,10.25,1.92,0.43,0.58,10.95,-17.55,-45.00,28.0
2026/04/13 14:49:25.61,IMU,8.30,-1016.60,15.63,0.44,0.82,-1.50,10.20,-18.60,-44.70,28.0
2026/04/13 14:49:25.72,IMU,14.16,-1011.72,37.60,-0.33,-0.51,0.58,9.45,-17.55,-46.50,27.8
2026/04/13 14:49:25.82,IMU,19.04,-1005.37,32.71,0.54,-0.71,0.22,10.05,-19.20,-46.65,27.9
2026/04/13 14:49:25.92,IMU,6.35,-998.54,22.46,-0.18,-1.06,1.76,9.90,-18.30,-45.00,27.9
2026/04/13 14:49:26.02,IMU,4.88,-1010.74,16.60,0.08,0.93,1.35,9.90,-17.85,-46.05,28.0
2026/04/13 14:49:26.12,IMU,8.79,-1019.53,-14.65,-0.16,0.18,0.03,10.95,-16.80,-44.40,28.0
2026/04/13 14:49:26.22,IMU,-1.46,-1012.21,16.11,-1.27,-0.47,-0.45,8.70,-17.10,-46.05,27.8
2026/04/13 14:49:26.32,IMU,12.70,-999.51,17.58,-1.35,-1.32,0.60,10.95,-17.55,-45.45,28.0
2026/04/13 14:49:26.42,IMU,6.35,-1015.63,14.16,-2.30,-1.93,-0.89,9.90,-17.55,-45.00,27.8
2026/04/13 14:49:26.52,IMU,5.37,-1017.09,41.50,-4.34,-2.04,-3.06,10.50,-18.30,-45.45,28.0
2026/04/13 14:49:26.62,IMU,14.16,-999.02,15.63,-4.01,-1.58,0.58,10.95,-16.80,-45.75,28.0
2026/04/13 14:49:26.72,IMU,14.65,-1003.91,14.16,0.47,-1.69,-0.98,11.25,-16.05,-45.45,28.0
2026/04/13 14:49:26.82,IMU,16.60,-1012.21,16.60,-2.63,1.27,-2.05,10.50,-17.85,-45.45,28.1
2026/04/13 14:49:26.92,IMU,-0.49,-1012.70,49.80,-1.44,-1.42,0.11,10.35,-17.70,-45.30,28.0
2026/04/13 14:49:27.02,IMU,0.00,-1018.07,9.77,-0.08,-0.40,-2.47,10.35,-17.70,-44.85,28.0
2026/04/13 14:49:27.13,IMU,7.32,-1010.25,20.51,-1.06,-1.69,-1.88,10.80,-18.00,-45.60,27.9
2026/04/13 14:49:27.23,IMU,3.42,-1004.39,11.23,-0.89,-1.38,0.56,9.45,-17.85,-45.00,27.9
2026/04/13 14:49:27.33,IMU,17.09,-999.02,24.41,2.34,-0.81,-0.05,9.90,-17.55,-45.45,28.0
2026/04/13 14:49:27.43,IMU,5.37,-1015.14,22.46,-0.35,-0.58,2.96,10.35,-17.40,-45.60,28.0
2026/04/13 14:49:27.53,IMU,12.21,-995.61,-11.72,-1.78,-0.52,3.89,10.80,-17.70,-46.95,28.1
2026/04/13 14:49:27.63,IMU,12.70,-1016.60,42.48,-3.85,-1.52,-0.13,10.50,-17.55,-45.45,28.2
2026/04/13 14:49:27.73,IMU,10.25,-1008.30,17.09,-1.55,-1.63,1.15,9.60,-16.95,-45.90,27.8
2026/04/13 14:49:27.83,IMU,7.32,-1008.79,5.86,-0.29,-0.79,0.40,10.50,-17.85,-44.70,28.1
2026/04/13 14:49:27.93,IMU,7.81,-995.61,23.44,-0.47,-0.90,0.27,10.95,-17.10,-44.70,28.0
2026/04/13 14:49:28.03,IMU,-2.44,-1019.53,31.74,-3.63,-2.40,-1.88,10.80,-17.70,-45.60,27.7
2026/04/13 14:49:28.13,IMU,9.77,-1016.11,37.11,1.87,1.73,0.95,10.05,-16.95,-45.90,28.2
2026/04/13 14:49:28.23,IMU,7.81,-1006.35,39.55,-0.38,-1.14,2.42,9.90,-17.85,-45.75,28.0
2026/04/13 14:49:28.33,IMU,5.86,-1012.21,14.65,0.74,-0.94,-1.92,10.35,-16.20,-44.85,28.0
2026/04/13 14:49:28.44,IMU,17.58,-1017.09,40.53,2.31,-0.54,-0.35,11.85,-18.00,-44.55,28.0
2026/04/13 14:49:28.54,IMU,12.70,-1009.28,5.86,-1.92,-0.97,-1.15,10.50,-17.55,-45.00,27.9
2026/04/13 14:49:28.64,IMU,6.35,-1017.58,40.53,0.11,-2.03,-0.61,11.10,-17.40,-45.60,27.9
2026/04/13 14:49:28.74,IMU,8.79,-1023.93,24.41,-0.86,-2.19,-3.48,9.90,-16.35,-44.70,28.0
2026/04/13 14:49:28.84,IMU,14.65,-1009.28,18.07,-2.25,0.18,0.14,9.45,-18.30,-45.45,28.1
