Timestamp,Sensor,AccX,AccY,AccZ,GyrX,GyrY,GyrZ,MagX,MagY,MagZ,Temp
2026/04/13 14:47:10.00,IMU,-25.88,-15.14,-965.33,-0.23,-0.46,-0.44,12.15,42.90,-31.35,28.0
2026/04/13 14:47:10.10,IMU,-23.44,-12.21,-978.03,-1.19,0.82,3.01,9.60,41.40,-31.80,28.0
2026/04/13 14:47:10.20,IMU,-11.23,-16.11,-973.63,-1.22,-0.60,-1.27,10.20,42.30,-31.95,27.9
2026/04/13 14:47:10.30,IMU,-16.11,-1.95,-965.82,0.40,-2.15,-0.84,11.10,42.90,-33.15,28.0
2026/04/13 14:47:10.40,IMU,-6.84,2.44,-978.03,-1.18,0.01,-4.66,11.85,42.15,-32.55,27.9
2026/04/13 14:47:10.50,IMU,-10.74,-11.72,-981.93,-0.48,-0.54,-0.38,11.70,42.00,-33.30,27.9
2026/04/13 14:47:10.61,IMU,-15.63,-20.51,-988.77,-1.54,-1.34,-0.11,10.80,41.40,-32.10,28.0
2026/04/13 14:47:10.71,IMU,-25.88,-3.42,-980.96,-1.63,-1.33,-1.73,10.80,42.45,-34.65,28.0
2026/04/13 14:47:10.81,IMU,-22.46,-11.72,-979.00,-1.57,0.98,-0.83,10.50,42.30,-33.30,27.9
2026/04/13 14:47:10.91,IMU,-17.58,-3.91,-982.91,0.97,0.18,-0.49,11.55,42.90,-32.10,28.1
2026/04/13 14:47:11.01,IMU,-20.02,-10.74,-979.98,-1.03,-1.03,0.85,11.10,43.65,-33.15,27.6
2026/04/13 14:47:11.11,IMU,-13.67,-14.65,-970.70,-1.96,-1.84,-0.28,13.05,43.05,-32.70,28.0
2026/04/13 14:47:11.21,IMU,-15.14,-13.18,-970.70,-0.65,-1.05,1.62,12.75,41.55,-33.30,27.9
2026/04/13 14:47:11.31,IMU,-13.67,-8.79,-976.56,-1.64,-0.34,-2.28,11.10,42.90,-32.85,28.0
2026/04/13 14:47:11.41,IMU,-22.46,-29.79,-965.82,0.75,1.63,-0.42,10.95,42.75,-32.25,28.0
2026/04/13 14:47:11.51,IMU,-15.63,-17.09,-972.17,-1.39,-1.53,2.15,9.90,42.30,-32.70,28.0
2026/04/13 14:47:11.61,IMU,-19.53,-7.81,-966.80,1.73,-0.42,-0.59,11.25,42.00,-33.00,28.0
2026/04/13 14:47:11.71,IMU,-13.18,-11.72,-971.68,-1.08,-1.14,2.50,11.25,42.75,-34.80,28.0
2026/04/13 14:47:11.81,IMU,-20.51,-8.30,-987.30,-0.32,-2.32,-1.50,10.20,43.80,-32.25,27.9
2026/04/13 14:47:11.91,IMU,-18.55,-16.11,-984.86,-1.32,-0.48,1.57,11.10,43.65,-32.10,27.8
2026/04/13 14:47:12.02,IMU,-32.71,-6.84,-978.52,-0.23,-2.23,1.02,10.95,42.30,-34.05,28.0
2026/04/13 14:47:12.12,IMU,-23.93,-6.84,-972.66,-2.24,-2.31,2.34,11.25,42.75,-31.65,28.2
2026/04/13 14:47:12.22,IMU,-14.65,-14.16,-969.24,0.27,-3.63,3.57,10.95,42.30,-32.25,28.0
2026/04/13 14:47:12.32,IMU,-19.53,-17.58,-978.03,0.53,1.18,-0.66,11.70,41.55,-33.30,27.9
2026/04/13 14:47:12.42,IMU,-28.32,-5.37,-973.14,-0.28,-1.19,0.11,9.90,41.55,-32.70,27.8
2026/04/13 14:47:12.52,IMU,-16.11,-14.16,-976.07,-1.19,0.93,1.81,11.55,42.15,-32.10,28.0
2026/04/13 14:47:12.62,IMU,-20.51,-21.48,-972.17,-1.98,-1.64,-2.21,11.25,42.00,-32.25,27.9
2026/04/13 14:47:12.72,IMU,-15.63,-12.70,-979.49,-1.56,0.44,2.15,12.45,43.80,-31.20,27.9
2026/04/13 14:47:12.82,IMU,-26.86,-12.70,-974.61,0.37,-2.35,1.08,10.20,41.25,-33.30,28.0
2026/04/13 14:47:12.92,IMU,-25.88,-6.84,-972.17,-2.16,0.92,0.63,11.25,41.55,-31.95,28.0
2026/04/13 14:47:13.02,IMU,-18.55,-13.67,-984.86,-1.55,2.34,-2.29,11.10,42.15,-32.55,28.1
2026/04/13 14:47:13.12,IMU,-14.65,-12.21,-985.35,-0.93,-1.59,-2.44,11.10,41.70,-32.10,28.0
2026/04/13 14:47:13.22,IMU,-29.30,-12.70,-976.56,-2.92,-0.02,1.67,10.05,42.45,-32.10,27.9
2026/04/13 14:47:13.32,IMU,-16.11,-16.11,-973.14,-1.10,-0.01,2.29,10.05,41.40,-32.85,27.7
2026/04/13 14:47:13.43,IMU,-23.44,-10.25,-983.40,-0.95,-1.66,-0.59,10.95,42.75,-32.70,28.0
2026/04/13 14:47:13.53,IMU,-21.00,-16.11,-967.77,0.28,-0.72,0.18,10.95,42.00,-32.70,28.0
2026/04/13 14:47:13.63,IMU,-12.70,-7.32,-977.54,-1.66,1.75,-1.63,12.45,42.75,-32.70,28.0
2026/04/13 14:47:13.73,IMU,-26.86,-6.84,-985.35,-1.29,-0.01,0.63,10.95,41.25,-33.30,27.9
2026/04/13 14:47:13.83,IMU,-32.71,-19.53,-983.40,0.93,-1.82,0.78,10.80,41.70,-32.55,28.2
2026/04/13 14:47:13.93,IMU,-13.67,-13.18,-983.89,-1.63,-1.38,-1.15,12.15,42.15,-31.80,28.0
2026/04/13 14:47:14.03,IMU,-13.67,-0.98,-976.56,0.79,-2.10,-1.18,10.80,41.70,-33.15,27.9
2026/04/13 14:47:14.13,IMU,-21.48,-15.63,-987.30,-1.45,-2.58,0.81,12.00,42.75,-32.25,28.0
2026/04/13 14:47:14.23,IMU,-21.00,-19.53,-979.00,-3.11,0.40,2.76,10.80,42.90,-33.60,27.9
2026/04/13 14:47:14.33,IMU,-20.51,-14.65,-981.45,0.07,0.44,1.40,11.85,42.15,-31.80,27.9
2026/04/13 14:47:14.43,IMU,-20.02,-7.32,-965.33,-0.27,-0.04,-0.08,11.10,42.15,-32.85,27.8
2026/04/13 14:47:14.53,IMU,-21.48,-18.07,-977.54,-0.68,-0.50,0.64,11.85,42.15,-31.35,28.0
2026/04/13 14:47:14.63,IMU,-15.63,-22.95,-975.59,-0.24,-0.44,-2.56,10.95,43.05,-33.75,27.8
2026/04/13 14:47:14.73,IMU,-19.04,-6.84,-974.61,-0.65,-1.31,0.76,10.95,42.00,-33.00,28.0
2026/04/13 14:47:14.84,IMU,-19.04,-12.70,-947.75,0.47,-2.80,0.68,10.95,41.25,-33.30,28.2
2026/04/13 14:47:14.94,IMU,-19.04,-8.30,-977.05,-0.07,0.71,-0.61,10.20,42.75,-33.30,27.9
2026/04/13 14:47:15.04,IMU,-33.20,-21.97,-978.52,0.95,1.79,0.48,11.55,42.90,-32.55,28.1
2026/04/13 14:47:15.14,IMU,-20.51,-9.28,-977.54,-0.40,-2.20,0.00,10.35,42.90,-31.80,27.8
2026/04/13 14:47:15.24,IMU,-20.02,-9.28,-985.35,-2.46,-2.19,-0.17,11.25,43.05,-31.95,28.0
2026/04/13 14:47:15.34,IMU,-18.55,-9.77,-982.91,-1.60,-1.47,1.11,11.55,42.45,-32.85,28.0
2026/04/13 14:47:15.44,IMU,-28.81,-16.11,-971.19,-1.15,1.23,0.74,12.00,42.75,-31.65,27.9
2026/04/13 14:47:15.54,IMU,-18.07,-8.79,-976.56,0.68,3.44,0.39,10.80,43.20,-31.80,27.6
2026/04/13 14:47:15.64,IMU,-12.70,-8.30,-977.05,-0.18,-1.97,-2.33,11.10,42.45,-32.10,28.0
2026/04/13 14:47:15.74,IMU,-22.95,-15.14,-975.59,-0.19,-1.51,-1.50,11.85,42.90,-33.15,27.9
2026/04/13 14:47:15.84,IMU,-15.14,-11.72,-968.26,-2.27,-0.11,1.00,10.35,42.45,-32.85,28.0
2026/04/13 14:47:15.94,IMU,-14.65,-5.37,-975.10,-1.97,0.20,1.40,10.20,42.00,-33.00,28.2
2026/04/13 14:47:16.04,IMU,-24.90,-13.18,-975.59,-1.03,-1.26,0.40,11.25,42.30,-33.75,28.0
2026/04/13 14:47:16.15,IMU,-18.55,-14.65,-967.29,-0.97,0.50,-0.11,6.45,39.15,-28.20,28.2
2026/04/13 14:47:16.25,IMU,-11.72,-12.21,-977.05,-1.02,-2.63,-0.15,10.95,42.30,-33.00,28.0
2026/04/13 14:47:16.35,IMU,-28.81,-24.41,-968.26,1.31,-0.59,-2.92,11.55,42.45,-32.55,28.0
2026/04/13 14:47:16.45,IMU,-6.84,-1.95,-975.59,0.57,-2.72,-1.27,12.15,41.40,-33.15,28.0
2026/04/13 14:47:16.55,IMU,-11.23,-23.44,-970.21,-1.26,1.17,1.49,11.70,42.75,-32.70,28.0
2026/04/13 14:47:16.65,IMU,-20.02,-7.81,-982.42,-0.93,-0.76,0.21,10.80,41.10,-32.55,27.6
2026/04/13 14:47:16.75,IMU,-16.60,-11.72,-975.59,-0.72,-1.80,0.59,10.95,43.05,-33.30,27.9
2026/04/13 14:47:16.85,IMU,-23.44,-9.77,-970.21,-0.82,-1.59,-1.11,12.00,42.00,-33.00,27.8
2026/04/13 14:47:16.95,IMU,-34.67,-11.23,-966.80,-0.43,-1.34,1.27,12.00,42.00,-33.00,28.0
2026/04/13 14:47:17.05,IMU,-13.18,-8.79,-976.07,0.22,-0.27,-2.05,10.80,42.15,-32.85,27.9
2026/04/13 14:47:17.15,IMU,-11.23,-15.14,-982.91,-2.18,0.41,1.74,10.95,42.30,-32.70,28.0
2026/04/13 14:47:17.26,IMU,-30.27,-27.34,-982.91,0.50,-3.63,-0.42,11.55,42.45,-32.85,28.2
2026/04/13 14:47:17.36,IMU,-16.11,-5.37,-986.82,-1.36,-0.41,2.09,10.20,42.75,-32.70,28.2
2026/04/13 14:47:17.46,IMU,-33.69,-12.21,-974.61,-0.92,0.40,1.50,11.85,42.45,-31.80,28.0
2026/04/13 14:47:17.56,IMU,-23.93,-21.48,-976.07,-2.23,-0.24,0.30,10.50,43.05,-31.95,28.0
2026/04/13 14:47:17.66,IMU,-14.65,-17.09,-982.42,0.60,0.15,1.59,10.80,41.10,-32.85,28.0
2026/04/13 14:47:17.76,IMU,-7.81,-10.25,-967.29,-0.82,0.72,0.03,10.05,41.40,-33.15,27.9
2026/04/13 14:47:17.86,IMU,-34.67,-12.21,-982.42,0.09,-0.18,1.53,10.95,43.50,-32.25,28.1
2026/04/13 14:47:17.96,IMU,-30.27,-9.77,-979.49,0.21,-2.63,-0.12,10.20,41.55,-33.30,28.1
2026/04/13 14:47:18.06,IMU,-21.00,-22.95,-975.59,-0.13,-0.92,1.24,10.35,41.70,-32.85,28.0
2026/04/13 14:47:18.16,IMU,-6.35,-18.07,-970.70,-2.00,-0.44,0.91,10.35,41.70,-32.55,28.0
2026/04/13 14:47:18.26,IMU,-14.65,-16.11,-975.10,0.45,-2.18,-1.13,12.15,43.20,-32.10,28.0
2026/04/13 14:47:18.36,IMU,-21.48,-8.79,-977.05,-0.67,0.01,-5.01,11.70,43.05,-32.70,28.0
2026/04/13 14:47:18.46,IMU,-39.06,-7.32,-973.14,-0.46,-0.68,0.67,10.35,41.70,-32.55,27.6
2026/04/13 14:47:18.57,IMU,-22.46,-24.41,-979.49,-1.02,0.63,-2.18,10.95,41.25,-31.65,28.2
2026/04/13 14:47:18.67,IMU,-20.51,-7.32,-964.36,-0.32,-0.63,1.07,10.35,42.90,-33.15,28.0
2026/04/13 14:47:18.77,IMU,-18.07,-14.65,-967.29,-1.11,-2.11,1.34,10.50,43.05,-32.70,28.0
2026/04/13 14:47:18.87,IMU,-20.51,-11.23,-968.26,-2.27,1.49,0.45,12.00,40.80,-32.25,28.1
2026/04/13 14:47:18.97,IMU,-4.39,-24.41,-958.50,0.01,1.15,-0.66,11.85,42.45,-32.55,28.0
2026/04/13 14:47:19.07,IMU,-23.44,-4.39,-976.56,-1.18,0.76,-0.65,11.55,42.45,-32.85,28.0
2026/04/13 14:47:19.17,IMU,-39.06,-0.49,-969.73,-0.40,0.40,-1.97,11.10,43.95,-31.80,28.2
2026/04/13 14:47:19.27,IMU,-19.53,-18.07,-983.40,0.55,0.34,-0.46,11.25,42.00,-32.25,28.0
2026/04/13 14:47:19.37,IMU,-19.53,-11.23,-982.42,-1.02,-1.01,1.63,12.15,42.45,-32.85,27.8
2026/04/13 14:47:19.47,IMU,-20.51,-11.23,-971.68,-1.23,-0.27,2.50,11.70,41.55,-31.65,28.0
2026/04/13 14:47:19.57,IMU,-31.74,-13.67,-979.00,-0.15,-0.80,-0.50,9.30,41.70,-32.85,27.9
2026/04/13 14:47:19.67,IMU,-22.46,-8.30,-970.21,-0.87,-1.00,1.04,11.85,43.20,-33.90,27.8
2026/04/13 14:47:19.77,IMU,-18.07,-17.09,-967.29,-1.42,-3.02,-0.97,11.55,41.70,-33.75,28.0
2026/04/13 14:47:19.87,IMU,-21.00,-19.53,-978.03,0.69,-1.99,-0.66,11.10,42.15,-33.60,28.0
2026/04/13 14:47:19.97,IMU,-27.34,-13.18,-967.29,-0.81,-1.20,0.50,10.80,42.15,-32.55,27.9
2026/04/13 14:47:20.08,IMU,-23.44,-11.23,-976.56,-2.98,-1.20,0.94,10.35,41.70,-32.55,28.0
2026/04/13 14:47:20.18,IMU,-25.88,-7.81,-971.19,-1.44,-0.44,-4.26,10.80,41.40,-33.15,28.0
2026/04/13 14:47:20.28,IMU,-12.70,-12.70,-976.56,-1.36,-0.99,-0.28,11.55,41.40,-32.85,28.0
2026/04/13 14:47:20.38,IMU,-23.44,-15.63,-977.05,-0.96,0.61,1.76,10.95,42.00,-31.65,28.0
2026/04/13 14:47:20.48,IMU,-22.46,-16.11,-980.47,-0.31,-2.40,1.85,11.10,42.90,-31.35,28.0
2026/04/13 14:47:20.58,IMU,-30.76,-20.02,-971.19,-1.04,-1.37,2.78,10.80,41.40,-31.80,27.9
2026/04/13 14:47:20.68,IMU,-15.14,-10.25,-975.59,0.11,-0.01,0.95,11.10,42.45,-31.80,27.7
2026/04/13 14:47:20.78,IMU,-19.04,-11.23,-967.77,-0.43,-0.76,1.23,12.45,42.75,-32.25,28.2
2026/04/13 14:47:20.88,IMU,-21.00,-12.70,-964.36,-0.74,-1.35,-0.91,11.10,42.15,-31.35,28.1
2026/04/13 14:47:20.98,IMU,-16.60,-2.93,-979.98,0.66,0.54,0.43,12.00,42.75,-33.30,28.0
2026/04/13 14:47:21.08,IMU,-30.76,-8.79,-976.56,-0.42,1.81,3.12,11.85,41.40,-34.65,28.0
2026/04/13 14:47:21.18,IMU,-29.79,-9.77,-972.66,-1.30,-2.01,-0.59,10.80,41.70,-33.60,27.9
2026/04/13 14:47:21.28,IMU,-20.51,-8.30,-973.63,-1.82,1.26,-1.21,10.50,40.80,-32.70,28.1
2026/04/13 14:47:21.39,IMU,-11.23,-12.70,-986.33,-0.99,-1.66,1.64,11.25,42.30,-33.00,28.0
2026/04/13 14:47:21.49,IMU,-18.07,-11.72,-977.54,-1.95,-1.48,1.37,11.55,42.15,-33.60,28.1
2026/04/13 14:47:21.59,IMU,-7.81,-12.70,-978.03,1.38,-0.99,-0.03,11.10,42.15,-33.15,28.1
2026/04/13 14:47:21.69,IMU,-21.00,-8.30,-980.96,-0.91,-0.77,0.56,10.50,42.75,-32.25,27.8
2026/04/13 14:47:21.79,IMU,-13.67,-11.23,-960.45,-0.13,-0.17,0.55,11.10,42.90,-33.15,27.9
2026/04/13 14:47:21.89,IMU,-26.37,-14.16,-979.98,-1.99,-0.85,-0.31,10.95,43.05,-32.70,28.1
2026/04/13 14:47:21.99,IMU,-26.86,-7.81,-985.84,-1.34,-0.47,1.09,11.25,40.80,-32.70,27.8
2026/04/13 14:47:22.09,IMU,-11.72,-2.44,-981.45,-0.40,2.95,0.31,10.80,41.70,-32.85,28.0
2026/04/13 14:47:22.19,IMU,-26.37,-18.55,-973.63,0.34,0.17,0.15,10.80,41.70,-32.55,28.0
2026/04/13 14:47:22.29,IMU,-16.60,-14.16,-978.03,-2.54,1.18,-0.18,9.45,41.25,-31.95,27.8
2026/04/13 14:47:22.39,IMU,-24.41,-15.14,-987.30,-1.07,-1.49,-0.21,11.70,41.55,-32.25,28.4
2026/04/13 14:47:22.49,IMU,-31.25,-5.37,-967.29,0.60,0.03,0.71,10.50,42.75,-31.65,28.2
2026/04/13 14:47:22.59,IMU,-23.44,-19.04,-972.17,-0.37,-1.02,-3.29,11.85,43.95,-33.60,27.8
2026/04/13 14:47:22.69,IMU,-20.02,-10.74,-965.82,0.39,-2.48,0.02,10.95,43.50,-32.70,28.0
2026/04/13 14:47:22.80,IMU,-30.27,-8.79,-975.59,0.79,-1.08,1.33,11.55,42.15,-32.55,28.0
2026/04/13 14:47:22.90,IMU,-29.79,-12.21,-979.49,0.34,0.71,0.02,10.35,42.90,-32.55,27.9
2026/04/13 14:47:23.00,IMU,-21.97,-15.63,-972.17,-0.54,-0.37,0.38,9.90,41.55,-33.00,27.8
2026/04/13 14:47:23.10,IMU,-21.97,-22.95,-971.68,-0.48,-2.33,-0.15,10.80,41.10,-32.10,28.2
2026/04/13 14:47:23.20,IMU,-7.32,-18.55,-989.26,-0.76,0.23,0.98,10.95,42.30,-32.70,27.9
2026/04/13 14:47:23.30,IMU,-19.04,-11.23,-969.24,-0.16,-0.91,1.53,10.35,43.20,-32.10,27.8
2026/04/13 14:47:23.40,IMU,-16.60,-25.39,-975.59,-1.24,-1.34,-0.40,11.85,43.20,-32.10,28.1
2026/04/13 14:47:23.50,IMU,-19.04,-5.37,-969.73,-0.89,-2.31,-0.87,12.00,42.30,-31.95,27.9
2026/04/13 14:47:23.60,IMU,-34.67,-15.63,-975.10,0.34,1.02,-0.18,10.20,43.50,-32.70,28.0
2026/04/13 14:47:23.70,IMU,-16.11,-5.37,-974.12,1.47,-3.46,-2.42,11.85,41.70,-32.55,28.0
2026/04/13 14:47:23.80,IMU,-19.04,-19.04,-974.12,-0.76,0.08,1.38,11.10,42.90,-32.55,28.2
2026/04/13 14:47:23.90,IMU,-22.46,-21.97,-985.35,0.22,-1.34,-0.15,9.90,42.75,-31.95,27.8
2026/04/13 14:47:24.00,IMU,-18.07,-0.49,-979.49,-2.69,-0.27,-0.38,11.10,42.15,-33.15,27.8
2026/04/13 14:47:24.11,IMU,-20.02,-8.30,-976.56,1.17,-0.02,0.18,10.20,43.05,-33.30,27.9
2026/04/13 14:47:24.21,IMU,-25.88,-15.14,-987.79,-1.24,0.30,-0.69,10.20,41.25,-33.75,28.1
2026/04/13 14:47:24.31,IMU,-16.11,-11.23,-979.49,0.29,-1.34,-0.89,7.65,40.80,-29.85,27.9
2026/04/13 14:47:24.41,IMU,-28.81,-18.07,-975.10,-0.14,1.84,-0.11,11.25,42.30,-33.00,27.9
2026/04/13 14:47:24.51,IMU,-18.07,-10.74,-969.73,-0.47,0.00,0.47,11.25,43.80,-34.05,28.0
2026/04/13 14:47:24.61,IMU,-26.37,-13.67,-971.68,1.51,0.08,0.48,12.60,42.45,-32.55,28.0
2026/04/13 14:47:24.71,IMU,-21.97,-10.25,-963.87,-1.21,-0.41,-0.04,10.95,42.00,-31.20,28.0
2026/04/13 14:47:24.81,IMU,-10.74,-13.67,-982.42,-0.80,-1.21,1.24,11.25,40.80,-33.30,28.0
2026/04/13 14:47:24.91,IMU,-27.83,-11.23,-978.52,-0.34,-0.08,-0.07,10.95,42.75,-33.30,28.0
2026/04/13 14:47:25.01,IMU,-33.69,-12.21,-968.26,-1.11,-0.70,-0.08,11.55,42.15,-32.55,28.0
2026/04/13 14:47:25.11,IMU,-42.48,-3.42,-981.45,0.14,0.65,-0.38,11.10,42.90,-33.15,28.0
2026/04/13 14:47:25.21,IMU,-38.09,-22.95,-974.12,0.02,1.41,-0.98,11.55,42.45,-33.60,27.8
2026/04/13 14:47:25.31,IMU,-14.65,-11.72,-985.35,0.53,0.93,-2.09,6.30,40.80,-27.75,28.0
2026/04/13 14:47:25.41,IMU,-29.30,-9.28,-977.54,-0.89,-1.13,4.07,10.20,43.50,-33.00,28.1
2026/04/13 14:47:25.52,IMU,-32.23,-22.46,-976.56,-0.94,-1.71,2.31,10.95,42.00,-33.30,28.0
2026/04/13 14:47:25.62,IMU,-28.81,-8.79,-969.24,-0.53,-0.09,-1.62,11.25,42.00,-31.20,28.2
2026/04/13 14:47:25.72,IMU,-14.16,-20.51,-964.36,-0.87,-0.77,2.23,10.80,43.65,-32.55,28.3
2026/04/13 14:47:25.82,IMU,-21.97,-11.23,-960.94,-0.80,-0.76,-4.35,10.35,42.15,-33.15,28.0
2026/04/13 14:47:25.92,IMU,-14.16,-12.21,-974.61,-0.39,0.76,-0.40,10.80,42.45,-32.85,28.0
2026/04/13 14:47:26.02,IMU,-14.65,-19.53,-988.28,-2.20,-0.89,2.19,10.80,41.70,-32.55,28.1
2026/04/13 14:47:26.12,IMU,-19.04,-20.02,-985.84,-2.49,1.89,-1.37,11.25,42.75,-33.30,28.1
2026/04/13 14:47:26.22,IMU,-11.72,-21.48,-982.42,-0.63,-1.05,-2.08,10.20,41.25,-33.00,28.2
2026/04/13 14:47:26.33,IMU,-17.58,-21.97,-993.65,2.04,0.18,1.09,10.95,40.80,-31.95,28.0
2026/04/13 14:47:26.43,IMU,-27.34,-15.14,-979.98,0.48,-1.07,-1.17,11.10,41.40,-32.10,28.0
2026/04/13 14:47:26.53,IMU,-15.63,-10.74,-974.61,-1.81,-3.15,3.48,10.50,43.05,-33.75,28.0
2026/04/13 14:47:26.63,IMU,-23.44,-2.44,-971.68,-2.68,-1.44,-2.08,10.35,42.45,-32.85,28.0
2026/04/13 14:47:26.73,IMU,-21.48,-12.70,-965.82,-1.05,-1.13,0.56,11.55,42.45,-32.55,27.9
2026/04/13 14:47:26.83,IMU,-20.51,2.93,-976.07,-0.76,0.30,-0.70,11.70,41.25,-32.70,27.9
2026/04/13 14:47:26.94,IMU,-21.97,-14.65,-968.26,-0.94,0.13,-0.92,10.80,42.90,-32.10,28.0
2026/04/13 14:47:27.04,IMU,-31.25,-7.81,-971.19,-0.04,-1.25,-0.91,11.85,43.20,-33.15,27.9
2026/04/13 14:47:27.14,IMU,-17.58,-14.65,-978.52,-0.44,-1.18,0.93,9.45,42.30,-33.30,27.7
2026/04/13 14:47:27.24,IMU,-26.86,-19.04,-977.54,-1.01,-3.51,0.35,10.95,42.00,-31.95,27.9
2026/04/13 14:47:27.34,IMU,-25.39,-26.86,-987.30,-0.47,-1.11,3.60,10.05,42.15,-33.90,27.8
2026/04/13 14:47:27.44,IMU,-21.97,-9.28,-964.84,-0.47,-0.95,0.09,11.25,42.00,-32.25,28.0
2026/04/13 14:47:27.54,IMU,-24.90,-21.00,-979.98,-0.04,-0.56,-1.00,10.50,41.55,-33.75,27.9
2026/04/13 14:47:27.64,IMU,-10.74,-7.32,-980.96,-0.31,0.40,0.69,9.90,42.75,-31.95,28.0
2026/04/13 14:47:27.74,IMU,-20.51,-22.46,-974.61,-1.92,-0.90,2.86,10.95,42.30,-33.30,28.1
2026/04/13 14:47:27.84,IMU,-34.18,-21.97,-971.68,1.25,-0.18,-0.32,9.60,41.70,-32.55,27.8
2026/04/13 14:47:27.94,IMU,-8.79,-15.14,-976.56,-1.16,-1.60,0.17,11.70,42.30,-32.70,27.9
2026/04/13 14:47:28.04,IMU,-25.88,-1.95,-976.56,-0.35,-0.66,-2.18,11.25,42.00,-33.30,27.8
2026/04/13 14:47:28.14,IMU,-20.02,-11.72,-981.45,-0.05,0.65,-0.40,10.95,43.05,-31.95,27.8
2026/04/13 14:47:28.25,IMU,-27.83,-9.77,-984.86,-0.27,1.98,0.62,11.55,41.70,-32.85,27.7
2026/04/13 14:47:28.35,IMU,-19.04,-16.60,-980.96,-1.82,1.37,1.56,10.80,42.15,-32.55,28.0
2026/04/13 14:47:28.45,IMU,-15.63,-4.88,-972.66,0.44,-0.18,-2.06,12.00,42.30,-31.95,28.0
2026/04/13 14:47:28.55,IMU,-16.60,-18.07,-976.56,-2.73,1.01,1.12,10.80,42.45,-33.15,27.8
2026/04/13 14:47:28.65,IMU,-22.95,-14.65,-979.98,-1.90,-1.18,-0.03,11.10,42.90,-32.85,28.0
2026/04/13 14:47:28.75,IMU,-24.90,-9.77,-993.65,-0.33,-0.73,3.14,10.95,44.25,-32.70,27.9
2026/04/13 14:47:28.85,IMU,-27.34,-14.16,-974.12,-1.53,-1.27,-3.55,11.10,42.90,-34.65,28.1
2026/04/13 14:47:28.95,IMU,-18.55,-11.23,-980.47,-2.56,-1.14,0.40,12.15,42.90,-33.15,27.9
2026/04/13 14:47:29.05,IMU,-30.27,-22.95,-966.80,-0.25,-0.10,0.66,10.50,42.00,-32.70,27.9
2026/04/13 14:47:29.15,IMU,-18.55,-3.42,-973.63,0.21,-0.56,2.21,11.10,42.15,-32.85,27.8
2026/04/13 14:47:29.25,IMU,-25.88,-0.98,-977.54,0.24,-1.69,1.02,11.25,43.05,-32.70,27.6
2026/04/13 14:47:29.35,IMU,-20.02,-3.42,-976.07,-2.17,0.30,1.76,11.55,41.70,-32.10,28.0
2026/04/13 14:47:29.45,IMU,-15.14,-24.41,-966.31,-0.26,-0.64,-0.14,10.05,42.90,-33.15,27.8
2026/04/13 14:47:29.55,IMU,-24.90,-16.11,-985.84,-0.89,0.23,-0.32,10.35,41.10,-33.90,27.9
2026/04/13 14:47:29.66,IMU,-22.95,-13.18,-970.70,-0.63,0.53,1.53,10.80,41.40,-31.05,28.0
2026/04/13 14:47:29.76,IMU,-18.55,-13.67,-970.70,0.11,1.58,2.58,11.25,42.00,-32.70,28.3
2026/04/13 14:47:29.86,IMU,-28.32,-6.84,-971.68,0.65,0.61,0.75,11.10,43.20,-32.85,28.0
2026/04/13 14:47:29.96,IMU,-20.51,-5.86,-978.03,-1.14,-0.69,-0.62,11.55,42.45,-31.35,28.1
2026/04/13 14:47:30.06,IMU,-38.57,-6.35,-981.45,-1.63,-3.06,-1.45,12.60,41.40,-32.85,28.0
2026/04/13 14:47:30.16,IMU,-34.18,-14.65,-978.52,0.77,-0.42,1.05,10.80,42.15,-33.15,28.1
2026/04/13 14:47:30.26,IMU,-23.44,-8.79,-980.96,-0.83,-0.20,-4.16,11.10,42.45,-33.15,28.0
2026/04/13 14:47:30.36,IMU,-20.51,-9.28,-971.19,0.40,0.31,-0.07,10.95,42.30,-34.50,27.8
2026/04/13 14:47:30.46,IMU,-25.39,-3.42,-974.61,0.25,-2.02,1.34,11.70,41.55,-31.95,28.0
2026/04/13 14:47:30.56,IMU,-24.41,-6.35,-966.80,0.24,-3.56,1.18,11.55,41.40,-32.10,28.0
2026/04/13 14:47:30.66,IMU,-24.41,-10.74,-977.54,0.21,-3.32,0.81,10.95,41.25,-32.70,28.0
2026/04/13 14:47:30.76,IMU,-24.41,-19.53,-972.17,-0.89,-1.58,-1.37,12.00,44.25,-33.30,28.0
2026/04/13 14:47:30.86,IMU,-28.32,-10.25,-972.66,-0.88,-0.96,0.81,10.35,41.40,-33.15,28.1
2026/04/13 14:47:30.96,IMU,-15.14,-15.63,-964.84,-0.96,-0.08,0.13,11.85,41.40,-32.10,28.0
2026/04/13 14:47:31.07,IMU,-23.93,-9.28,-977.05,-2.01,-2.26,2.24,11.10,41.10,-33.15,27.9
2026/04/13 14:47:31.17,IMU,-21.48,-11.23,-977.54,0.10,-0.85,0.13,12.15,42.45,-31.35,28.0
2026/04/13 14:47:31.27,IMU,-13.67,-22.95,-972.17,1.33,-0.12,1.27,11.55,41.70,-32.85,28.0
2026/04/13 14:47:31.37,IMU,-34.67,-15.63,-968.26,-1.81,-0.40,0.48,10.20,40.80,-34.50,28.0
2026/04/13 14:47:31.47,IMU,-12.21,-12.21,-977.54,-1.83,-0.35,4.38,10.50,41.55,-33.75,27.9
2026/04/13 14:47:31.57,IMU,-12.21,-16.11,-972.66,-1.56,-0.81,0.80,10.35,41.70,-32.10,27.9
2026/04/13 14:47:31.67,IMU,-23.93,-4.88,-973.14,-1.18,-0.31,0.65,11.70,43.05,-33.00,28.0
2026/04/13 14:47:31.77,IMU,-14.65,-10.25,-969.24,-0.89,1.08,0.62,10.95,41.55,-31.65,28.0
2026/04/13 14:47:31.87,IMU,-11.23,-13.67,-968.26,-1.58,-0.11,-0.47,10.20,42.75,-33.30,28.0
2026/04/13 14:47:31.97,IMU,-16.60,-5.86,-964.84,-0.35,-0.82,0.05,10.05,42.15,-33.60,27.8
2026/04/13 14:47:32.07,IMU,-17.09,-2.44,-970.70,-1.17,-1.90,-0.71,11.55,41.10,-32.55,28.3
2026/04/13 14:47:32.17,IMU,-21.00,-14.16,-985.84,1.11,-0.27,1.15,10.95,42.00,-33.00,28.0
2026/04/13 14:47:32.27,IMU,-19.04,-22.95,-967.29,-0.62,-1.37,-1.02,10.35,41.70,-32.55,28.0
2026/04/13 14:47:32.38,IMU,-29.79,-12.21,-969.24,-1.56,0.47,0.58,11.25,42.30,-33.30,28.0
2026/04/13 14:47:32.48,IMU,-28.81,-16.60,-974.61,-1.25,-0.89,2.28,8.55,41.10,-29.25,28.0
2026/04/13 14:47:32.58,IMU,-21.48,-12.21,-982.42,-0.02,0.49,0.73,10.20,42.75,-32.25,28.0
2026/04/13 14:47:32.68,IMU,-37.11,-10.74,-974.12,-1.78,0.37,-0.43,10.80,42.15,-32.55,27.8
2026/04/13 14:47:32.78,IMU,-25.39,-7.32,-985.84,-0.66,1.23,-1.50,10.80,41.70,-32.85,28.0
2026/04/13 14:47:32.88,IMU,-11.72,-10.25,-979.98,-1.07,-0.56,0.29,10.80,42.15,-32.85,28.0
2026/04/13 14:47:32.98,IMU,-28.32,-13.67,-969.73,0.49,-2.59,1.10,11.85,42.90,-33.15,27.8
2026/04/13 14:47:33.08,IMU,-24.90,-6.84,-964.84,-0.39,0.30,-2.84,10.50,43.05,-31.20,28.0
2026/04/13 14:47:33.18,IMU,-13.67,-3.42,-974.12,0.06,-2.25,1.63,11.85,43.20,-32.10,28.0
2026/04/13 14:47:33.28,IMU,-22.95,-10.74,-960.94,-2.59,2.28,0.95,11.70,42.75,-33.30,28.0
2026/04/13 14:47:33.38,IMU,-20.51,-15.63,-972.17,0.37,-0.37,0.82,11.55,41.40,-32.85,28.1
2026/04/13 14:47:33.48,IMU,-23.93,-15.14,-982.42,-0.95,-0.98,1.38,9.60,40.65,-29.70,28.0
2026/04/13 14:47:33.58,IMU,-16.11,-5.86,-984.38,-1.45,-2.97,-3.68,10.95,42.30,-34.05,28.0
2026/04/13 14:47:33.68,IMU,-21.97,-11.23,-975.10,-0.04,-2.80,-1.28,11.70,43.05,-31.95,27.8
2026/04/13 14:47:33.79,IMU,-20.51,-17.09,-983.40,-1.31,-2.31,3.07,11.25,42.75,-33.00,27.9
2026/04/13 14:47:33.89,IMU,-13.18,-17.58,-967.77,-0.39,-1.21,-0.12,11.25,41.55,-32.70,27.8
2026/04/13 14:47:33.99,IMU,-16.60,-3.91,-975.59,-1.56,-0.68,-2.02,10.20,43.80,-33.00,27.8
2026/04/13 14:47:34.09,IMU,-21.00,-21.00,-982.42,0.20,-0.06,-0.96,10.95,43.50,-33.30,28.0
2026/04/13 14:47:34.19,IMU,-26.37,-18.07,-967.77,-0.96,-0.46,-0.52,11.55,42.15,-33.60,27.9
2026/04/13 14:47:34.29,IMU,-24.90,-12.21,-977.05,-0.24,-1.54,0.85,10.05,42.15,-32.85,28.0
2026/04/13 14:47:34.39,IMU,-15.14,-15.63,-970.21,-2.01,0.23,2.04,12.15,42.45,-33.60,27.8
2026/04/13 14:47:34.49,IMU,-6.35,-15.14,-968.75,-1.95,0.57,-0.08,7.50,39.15,-28.65,28.0
2026/04/13 14:47:34.59,IMU,-25.88,-12.70,-981.45,-0.50,-1.02,-1.09,10.50,41.55,-33.00,27.8
2026/04/13 14:47:34.69,IMU,-20.51,-10.74,-976.07,-0.27,-2.17,-1.17,12.00,42.75,-31.65,28.0
2026/04/13 14:47:34.79,IMU,-23.93,-6.35,-979.49,-0.05,-0.85,1.05,11.25,43.05,-33.00,27.8
2026/04/13 14:47:34.89,IMU,-29.79,-10.74,-977.54,0.39,1.11,0.15,10.50,42.00,-33.00,27.8
2026/04/13 14:47:34.99,IMU,-24.41,-8.79,-979.98,-2.27,-3.02,-1.35,10.95,43.05,-33.00,28.3
2026/04/13 14:47:35.09,IMU,-25.88,-12.21,-977.05,0.44,-0.06,4.03,12.00,42.00,-33.00,27.6
2026/04/13 14:47:35.20,IMU,-28.81,-13.67,-968.75,0.76,-0.32,-0.53,11.55,43.20,-32.10,27.9
2026/04/13 14:47:35.30,IMU,-26.86,-21.97,-988.28,-0.48,-0.03,-0.29,11.55,41.10,-32.10,28.0
2026/04/13 14:47:35.40,IMU,-19.04,-8.30,-970.21,0.69,1.76,1.77,11.10,42.15,-32.85,28.2
2026/04/13 14:47:35.51,IMU,-21.97,-12.70,-971.19,-1.85,-1.41,-2.66,6.90,38.55,-28.05,27.8
2026/04/13 14:47:35.61,IMU,-16.60,-29.30,-980.96,-0.02,-0.27,-2.29,11.10,42.45,-32.55,28.2
2026/04/13 14:47:35.71,IMU,-37.11,-13.67,-980.96,-0.20,-2.63,-0.77,9.90,41.25,-33.00,28.0
2026/04/13 14:47:35.81,IMU,-24.90,-14.65,-960.94,-1.63,-0.38,-0.38,10.80,42.15,-32.85,28.2
2026/04/13 14:47:35.91,IMU,-18.07,-6.84,-979.98,-0.66,-1.66,0.28,12.15,42.15,-33.60,28.0
2026/04/13 14:47:36.01,IMU,-28.32,-10.25,-972.17,0.50,-3.20,1.44,11.70,42.30,-31.65,28.0
2026/04/13 14:47:36.11,IMU,-12.70,-15.14,-975.10,-0.97,-1.73,-0.18,10.80,41.10,-32.55,28.0
2026/04/13 14:47:36.21,IMU,-16.11,-2.44,-976.56,-1.65,-1.87,0.40,10.50,42.30,-32.25,28.2
2026/04/13 14:47:36.31,IMU,-29.79,-12.21,-979.98,2.23,-0.98,1.55,11.85,41.70,-33.15,28.1
2026/04/13 14:47:36.41,IMU,-20.02,-10.25,-974.61,0.87,0.54,0.61,10.35,42.15,-32.85,28.2
2026/04/13 14:47:36.51,IMU,-20.51,-16.60,-977.05,0.81,-0.44,-0.37,10.80,42.45,-33.15,27.8
2026/04/13 14:47:36.61,IMU,-13.67,-17.58,-975.59,-0.19,-2.52,1.75,11.25,43.05,-33.30,28.1
2026/04/13 14:47:36.71,IMU,-31.74,-17.09,-976.56,0.68,-2.48,1.20,11.55,42.15,-33.60,27.6
2026/04/13 14:47:36.82,IMU,-31.74,-3.91,-974.61,-0.78,-0.43,-1.69,10.95,42.30,-33.30,27.8
2026/04/13 14:47:36.92,IMU,-26.37,-4.88,-971.68,-0.54,-1.05,1.48,11.55,41.40,-32.55,28.0
2026/04/13 14:47:37.02,IMU,-17.58,-11.23,-985.35,-0.82,0.40,0.64,10.80,42.45,-31.80,27.9
2026/04/13 14:47:37.12,IMU,-15.14,-5.86,-971.19,0.83,1.52,-0.58,11.85,41.70,-33.15,28.2
2026/04/13 14:47:37.22,IMU,-13.67,-13.18,-978.52,-0.21,-0.69,0.59,10.95,41.55,-32.25,28.0
2026/04/13 14:47:37.32,IMU,-13.18,-15.14,-983.89,-0.05,0.76,-0.69,10.95,42.30,-33.75,27.8
2026/04/13 14:47:37.42,IMU,-23.93,5.86,-978.52,-1.02,0.01,1.27,11.55,43.20,-31.35,27.9
2026/04/13 14:47:37.52,IMU,-9.77,-9.77,-972.66,-1.49,0.71,-0.06,10.35,43.20,-32.55,27.7
2026/04/13 14:47:37.62,IMU,-10.74,-7.81,-975.59,0.34,0.79,0.64,10.05,41.10,-32.55,28.0
2026/04/13 14:47:37.72,IMU,-22.95,-8.30,-974.61,0.24,0.44,-0.65,10.95,43.50,-33.75,28.0
2026/04/13 14:47:37.82,IMU,-20.02,-16.11,-976.07,0.52,-0.58,0.06,11.55,42.45,-32.55,28.0
2026/04/13 14:47:37.92,IMU,-12.70,-1.95,-970.70,0.55,-4.53,0.83,12.00,43.05,-31.65,27.7
2026/04/13 14:47:38.02,IMU,-16.60,-17.58,-964.36,1.22,0.52,0.60,11.10,41.10,-31.35,28.0
2026/04/13 14:47:38.12,IMU,-14.16,-19.04,-977.54,-0.54,-2.21,-0.60,11.85,42.15,-32.10,27.8
2026/04/13 14:47:38.23,IMU,-17.58,-14.65,-970.21,-0.21,-0.94,-2.76,11.25,42.30,-32.70,28.0
2026/04/13 14:47:38.33,IMU,-23.44,-13.18,-970.21,-0.52,-0.28,-1.85,11.55,42.90,-32.85,28.0
2026/04/13 14:47:38.43,IMU,-18.55,-14.16,-975.59,-2.22,-2.56,0.73,11.10,41.40,-33.15,28.0
2026/04/13 14:47:38.53,IMU,-30.76,-13.67,-968.26,-2.41,-0.69,-0.36,11.10,41.40,-32.55,28.0
2026/04/13 14:47:38.63,IMU,-28.32,-18.55,-978.03,-0.44,-2.04,-0.65,10.50,43.05,-33.00,28.1
2026/04/13 14:47:38.73,IMU,-18.55,-2.93,-975.10,-1.17,0.00,0.63,10.80,42.15,-32.85,28.0
2026/04/13 14:47:38.83,IMU,-17.09,-6.35,-975.10,-1.10,-0.34,0.05,11.10,42.90,-33.15,28.3
2026/04/13 14:47:38.93,IMU,-15.14,-11.72,-980.47,0.40,0.79,2.15,10.20,41.55,-33.00,28.0
2026/04/13 14:47:39.03,IMU,-22.46,-6.35,-966.31,-1.02,-1.22,3.53,10.80,42.15,-31.80,28.0
2026/04/13 14:47:39.13,IMU,-23.93,-8.79,-979.98,0.10,-0.42,0.29,11.70,41.25,-31.95,28.1
2026/04/13 14:47:39.23,IMU,-16.60,-9.77,-974.61,0.70,1.75,-1.73,11.10,41.10,-32.85,28.0
2026/04/13 14:47:39.33,IMU,-19.53,-14.16,-974.12,0.08,-1.03,2.74,10.95,42.00,-32.25,27.8
2026/04/13 14:47:39.43,IMU,-22.46,-1.46,-986.82,0.56,-0.95,-2.92,10.50,42.00,-32.25,28.2
2026/04/13 14:47:39.53,IMU,-31.74,-16.60,-975.59,-0.32,0.34,-0.08,12.00,42.75,-32.70,27.9
2026/04/13 14:47:39.64,IMU,-27.34,-15.14,-978.52,-0.38,-1.10,-0.20,10.80,41.10,-32.55,27.9
2026/04/13 14:47:39.74,IMU,-24.41,-6.35,-977.54,-0.79,0.05,0.54,10.50,41.25,-33.30,28.1
2026/04/13 14:47:39.84,IMU,-15.14,-7.32,-973.63,0.31,-0.04,-1.82,10.80,42.15,-31.35,28.0
2026/04/13 14:47:39.94,IMU,-15.63,-6.35,-979.98,-3.58,-0.21,-0.28,11.10,41.70,-33.60,28.0
2026/04/13 14:47:40.04,IMU,-19.53,-7.81,-976.07,-3.23,-2.09,-0.10,11.70,42.30,-32.25,28.0
2026/04/13 14:47:40.14,IMU,-23.44,-4.39,-975.59,-2.18,1.01,-0.89,10.20,43.05,-32.25,28.2
2026/04/13 14:47:40.24,IMU,-17.09,-9.77,-984.86,-1.29,0.96,-1.15,12.15,43.95,-32.55,28.0
2026/04/13 14:47:40.34,IMU,-23.44,-5.37,-979.00,-0.72,0.94,-1.66,11.10,42.45,-33.90,28.1
2026/04/13 14:47:40.44,IMU,-22.95,-22.46,-974.61,-1.20,-1.79,1.44,11.55,41.70,-33.90,28.0
2026/04/13 14:47:40.54,IMU,-23.93,-3.91,-991.21,-0.74,-1.54,-2.01,10.80,42.45,-32.10,28.0
2026/04/13 14:47:40.64,IMU,-19.04,-12.70,-967.77,0.22,-3.44,2.66,11.25,41.25,-33.75,27.9
2026/04/13 14:47:40.74,IMU,-24.90,-8.79,-986.82,-0.56,-0.50,0.56,11.55,41.70,-33.60,28.0
2026/04/13 14:47:40.84,IMU,-20.51,-8.30,-979.49,-0.79,1.01,2.48,12.45,41.55,-32.70,27.8
2026/04/13 14:47:40.94,IMU,-15.63,-3.42,-975.10,0.05,-1.41,1.22,11.25,41.55,-32.70,27.8
2026/04/13 14:47:41.05,IMU,-27.83,-12.21,-978.03,-0.63,-1.50,1.11,10.95,41.55,-33.30,28.0
2026/04/13 14:47:41.15,IMU,-24.41,-11.23,-970.70,-0.55,-0.56,-0.99,11.85,42.90,-33.90,28.2
2026/04/13 14:47:41.25,IMU,-19.53,-12.21,-978.52,-1.92,0.98,3.09,11.70,42.30,-32.25,28.2
2026/04/13 14:47:41.35,IMU,-11.23,-21.00,-983.40,-0.95,-1.11,0.06,11.55,41.70,-34.50,28.0
2026/04/13 14:47:41.45,IMU,-20.51,-11.72,-967.29,-0.81,-0.67,-2.87,10.20,42.75,-32.70,27.8
2026/04/13 14:47:41.55,IMU,-14.65,-20.02,-977.05,-0.83,-0.21,1.13,10.80,41.40,-32.10,28.1
2026/04/13 14:47:41.65,IMU,-25.39,-11.72,-987.30,-0.21,-1.08,0.10,10.80,41.70,-32.10,28.0
2026/04/13 14:47:41.75,IMU,-16.60,-9.77,-983.40,0.19,-1.30,0.79,11.55,41.70,-32.85,28.0
2026/04/13 14:47:41.85,IMU,-25.88,-14.65,-979.00,-0.76,-1.00,-0.88,11.85,41.40,-32.10,28.0
2026/04/13 14:47:41.95,IMU,-33.69,-18.55,-969.24,0.62,-1.80,0.09,10.80,42.45,-33.90,28.0
2026/04/13 14:47:42.05,IMU,-16.11,-21.97,-981.45,-1.82,-1.62,-1.52,10.80,42.15,-32.10,27.8
2026/04/13 14:47:42.15,IMU,-21.00,-11.72,-977.54,-0.61,-1.34,1.10,11.55,42.45,-32.55,27.6
2026/04/13 14:47:42.25,IMU,-19.53,-4.88,-969.24,-0.55,-1.31,-2.85,12.15,41.70,-32.55,28.0
2026/04/13 14:47:42.36,IMU,-18.55,-0.49,-974.61,1.86,-1.53,-2.68,12.45,43.05,-31.65,27.9
2026/04/13 14:47:42.46,IMU,-18.55,1.46,-978.03,-0.77,-1.24,1.05,11.55,41.40,-33.90,28.1
2026/04/13 14:47:42.56,IMU,-20.02,-19.04,-978.52,-1.23,0.33,-1.58,11.25,41.55,-31.65,28.1
2026/04/13 14:47:42.66,IMU,-23.44,-25.39,-983.89,0.15,-1.01,1.42,8.55,40.35,-30.30,28.0
2026/04/13 14:47:42.76,IMU,-21.97,-20.02,-994.14,0.32,-1.08,2.08,11.85,42.90,-32.85,28.1
2026/04/13 14:47:42.86,IMU,-23.44,0.00,-983.89,-0.92,-2.05,-1.10,10.50,42.75,-33.30,28.1
2026/04/13 14:47:42.96,IMU,-10.25,-2.93,-973.63,-2.58,0.11,0.82,12.45,40.80,-32.70,28.0
2026/04/13 14:47:43.06,IMU,-28.32,-8.30,-974.12,1.81,0.27,-1.47,10.95,42.30,-34.05,28.2
2026/04/13 14:47:43.16,IMU,-19.04,-4.88,-971.68,0.55,0.66,1.71,12.15,41.70,-32.85,27.8
2026/04/13 14:47:43.26,IMU,-10.25,-7.32,-968.26,-1.44,0.15,1.98,10.35,41.10,-33.15,27.9
2026/04/13 14:47:43.36,IMU,-3.42,-2.44,-972.66,-1.80,-0.31,3.15,10.95,43.50,-32.70,28.1
2026/04/13 14:47:43.46,IMU,-21.48,-11.72,-980.47,-0.09,-2.35,0.25,10.20,42.00,-32.70,27.9
2026/04/13 14:47:43.56,IMU,-19.04,-16.60,-985.84,-1.09,1.02,-0.89,12.90,42.45,-34.20,28.0
2026/04/13 14:47:43.66,IMU,-29.79,-12.70,-968.26,-0.60,1.11,-0.22,7.20,38.85,-28.65,28.1
2026/04/13 14:47:43.77,IMU,-26.37,-13.67,-980.96,-0.26,-0.45,2.66,10.05,41.10,-33.15,27.9
2026/04/13 14:47:43.87,IMU,-24.90,1.46,-976.07,-0.82,0.34,1.79,11.70,40.80,-34.50,28.0
2026/04/13 14:47:43.97,IMU,-4.88,2.93,-998.54,-0.85,-1.17,0.02,11.55,41.40,-33.15,27.9
2026/04/13 14:47:44.07,IMU,-12.21,-26.86,-989.75,1.49,0.45,1.31,12.45,42.75,-31.65,27.9
2026/04/13 14:47:44.17,IMU,-4.39,0.98,-974.61,-1.11,0.17,-0.05,9.90,42.30,-33.75,27.9
2026/04/13 14:47:44.27,IMU,-25.88,-26.37,-970.21,-1.12,1.89,0.36,11.85,42.45,-33.15,28.0
2026/04/13 14:47:44.37,IMU,-16.60,9.28,-972.17,-0.60,-1.21,0.22,11.25,42.75,-32.25,27.7
2026/04/13 14:47:44.47,IMU,-25.88,-21.97,-968.26,-1.58,0.30,4.05,10.95,42.75,-33.00,28.1
2026/04/13 14:47:44.57,IMU,-19.53,-0.98,-964.36,0.38,-1.97,0.83,10.35,43.20,-32.55,28.2
2026/04/13 14:47:44.68,IMU,0.49,-19.04,-983.40,-1.19,0.53,-1.02,11.25,42.00,-32.25,28.1
2026/04/13 14:47:44.78,IMU,-19.04,-18.55,-972.66,-0.09,-2.27,2.33,11.70,42.75,-33.30,28.0
2026/04/13 14:47:44.88,IMU,-17.58,-11.72,-983.89,0.18,-1.45,0.95,10.95,43.80,-32.70,28.0
2026/04/13 14:47:44.98,IMU,-28.32,-17.09,-975.10,-0.10,0.20,-0.20,11.55,42.15,-31.80,27.8
2026/04/13 14:47:45.08,IMU,-31.25,-11.72,-977.05,-1.21,-1.68,-1.38,10.05,42.15,-32.10,27.8
2026/04/13 14:47:45.18,IMU,-29.30,-11.72,-968.26,0.51,-0.05,-2.29,10.80,42.15,-32.55,28.0
2026/04/13 14:47:45.28,IMU,-26.86,-22.46,-965.33,0.98,-0.08,-3.03,11.55,41.40,-34.20,28.0
2026/04/13 14:47:45.39,IMU,-27.83,-14.65,-976.56,-1.61,0.18,-0.44,10.35,43.20,-32.85,27.8
2026/04/13 14:47:45.49,IMU,-13.67,-25.88,-978.52,-1.89,-3.03,-1.64,10.50,43.05,-33.00,28.1
2026/04/13 14:47:45.59,IMU,-22.46,-11.23,-973.14,-0.36,-2.76,-0.04,10.95,43.50,-31.20,28.0
2026/04/13 14:47:45.69,IMU,-20.51,-8.79,-973.14,0.37,-0.96,-0.03,11.25,41.55,-33.00,28.0
2026/04/13 14:47:45.79,IMU,-30.76,-15.63,-981.93,0.23,0.14,1.04,11.25,43.50,-34.05,27.9
2026/04/13 14:47:45.89,IMU,-16.60,-21.00,-974.12,0.01,0.62,2.42,9.45,42.00,-33.00,28.1
2026/04/13 14:47:45.99,IMU,-25.39,-12.70,-984.86,-1.41,0.25,-1.31,12.45,42.00,-32.70,28.0
2026/04/13 14:47:46.09,IMU,-8.79,-12.70,-978.52,-0.16,-2.70,1.59,11.25,42.30,-31.95,27.8
2026/04/13 14:47:46.19,IMU,-30.76,0.49,-977.05,-0.79,-1.27,3.61,10.50,41.55,-32.70,27.8
2026/04/13 14:47:46.29,IMU,-16.11,-19.53,-974.12,1.94,-0.28,0.64,12.90,42.45,-32.10,27.9
2026/04/13 14:47:46.39,IMU,-22.46,-19.53,-968.26,0.12,-0.34,0.47,11.70,42.30,-33.75,28.0
2026/04/13 14:47:46.49,IMU,-23.44,-17.58,-974.61,-0.40,-0.34,-1.40,11.55,43.20,-32.85,27.8
2026/04/13 14:47:46.59,IMU,-18.55,-23.93,-971.19,0.84,-0.13,2.68,10.05,42.45,-33.90,28.0
2026/04/13 14:47:46.69,IMU,-19.04,-8.30,-981.45,-2.41,-1.08,0.60,10.05,42.15,-32.85,28.0
2026/04/13 14:47:46.80,IMU,-28.81,-19.53,-975.10,0.64,-3.22,-0.33,10.80,42.15,-34.20,28.1
2026/04/13 14:47:46.90,IMU,-35.16,-11.23,-993.65,-0.36,-0.72,1.40,11.55,41.40,-32.85,28.2
2026/04/13 14:47:47.00,IMU,-20.02,-18.07,-985.84,-0.04,-0.73,-0.11,12.45,42.75,-33.30,28.0
2026/04/13 14:47:47.10,IMU,-20.02,-10.74,-979.98,-0.79,3.12,-1.60,10.20,41.55,-31.95,28.2
2026/04/13 14:47:47.20,IMU,-14.16,-23.44,-982.91,-1.63,1.11,1.48,10.50,42.30,-32.70,27.6
2026/04/13 14:47:47.30,IMU,-11.72,-7.32,-971.19,0.09,0.08,1.56,12.00,43.05,-33.30,27.8
2026/04/13 14:47:47.40,IMU,-13.18,-11.23,-972.66,-1.27,-0.08,1.22,11.70,41.55,-33.00,28.0
2026/04/13 14:47:47.50,IMU,-18.07,-21.97,-976.56,0.15,1.76,-0.76,11.85,42.90,-32.10,28.0
2026/04/13 14:47:47.60,IMU,-30.27,1.46,-979.98,-2.11,0.99,2.80,12.00,42.30,-32.25,28.0
2026/04/13 14:47:47.70,IMU,-17.58,-17.09,-986.82,-2.25,-0.28,-0.91,13.05,42.00,-32.70,28.2
2026/04/13 14:47:47.80,IMU,-22.95,-22.46,-981.45,-0.69,-0.13,-0.85,12.60,42.15,-33.15,28.0
2026/04/13 14:47:47.90,IMU,-17.58,-21.97,-975.59,-2.44,-0.32,1.75,12.00,42.30,-33.30,28.0
2026/04/13 14:47:48.00,IMU,-35.64,-9.28,-985.84,-0.21,-2.70,0.95,11.10,41.70,-34.20,27.9
2026/04/13 14:47:48.10,IMU,-21.00,-13.67,-977.54,-1.50,0.50,1.66,11.25,42.30,-33.00,28.0
2026/04/13 14:47:48.21,IMU,-16.11,-14.65,-989.75,-0.18,-1.04,1.15,11.85,43.20,-33.15,28.0
2026/04/13 14:47:48.31,IMU,-21.97,-12.70,-966.31,-1.47,-1.30,1.44,11.10,42.15,-33.15,27.8
2026/04/13 14:47:48.41,IMU,-33.20,-18.07,-981.93,-0.27,-0.47,1.61,11.55,43.20,-31.80,28.0
2026/04/13 14:47:48.51,IMU,-16.11,-17.58,-969.24,-1.37,-2.52,-1.73,12.15,42.15,-33.15,28.0
2026/04/13 14:47:48.61,IMU,-29.79,-17.09,-966.80,-1.20,-1.11,0.05,10.20,43.05,-32.25,27.9
2026/04/13 14:47:48.71,IMU,-18.07,-29.79,-975.59,-0.06,-0.39,-2.91,11.70,42.00,-31.65,28.0
2026/04/13 14:47:48.81,IMU,-17.58,-2.44,-967.77,-0.32,-0.98,1.11,10.35,43.20,-32.10,28.0
2026/04/13 14:47:48.91,IMU,-15.14,-19.04,-968.26,-1.43,-1.79,-1.79,10.35,41.70,-32.55,27.8
2026/04/13 14:47:49.01,IMU,-15.14,-9.77,-963.38,-0.85,0.24,-1.47,11.55,42.15,-33.15,28.0
2026/04/13 14:47:49.11,IMU,-8.79,-14.65,-982.91,-0.33,2.74,-1.65,12.60,42.15,-33.15,28.1
2026/04/13 14:47:49.21,IMU,-26.86,-2.44,-975.10,-1.08,1.73,-1.98,12.15,40.50,-32.70,28.0
2026/04/13 14:47:49.31,IMU,-26.86,-8.79,-962.89,0.34,-0.05,2.11,10.20,42.75,-31.65,28.0
2026/04/13 14:47:49.41,IMU,-31.74,-18.07,-970.70,-1.00,-1.53,0.75,10.35,43.65,-33.60,28.1
2026/04/13 14:47:49.51,IMU,-21.97,-22.46,-973.14,-0.12,0.24,-0.31,10.80,41.10,-33.15,27.8
2026/04/13 14:47:49.62,IMU,-14.16,-5.37,-968.26,-0.14,0.36,1.84,11.25,42.30,-33.75,27.6
2026/04/13 14:47:49.72,IMU,-28.32,-11.23,-967.29,-1.03,-2.54,-1.62,10.20,42.75,-31.65,27.8
2026/04/13 14:47:49.82,IMU,-22.46,-8.79,-976.07,-1.68,-2.25,1.80,11.70,41.55,-33.00,27.8
2026/04/13 14:47:49.92,IMU,-22.95,-25.88,-980.96,2.08,-0.97,-1.05,11.10,42.45,-33.15,28.0
2026/04/13 14:47:50.02,IMU,-23.93,-9.77,-967.29,1.02,-1.50,3.23,11.25,40.80,-32.70,28.0
2026/04/13 14:47:50.12,IMU,-20.02,-13.67,-982.42,-0.32,-2.27,2.45,11.70,42.00,-32.70,28.2
2026/04/13 14:47:50.22,IMU,-21.48,-18.07,-980.47,-0.89,0.82,-1.66,11.70,41.55,-32.70,28.2
2026/04/13 14:47:50.32,IMU,-25.39,-15.63,-979.00,1.10,-2.03,1.35,11.85,41.70,-32.10,28.0
2026/04/13 14:47:50.42,IMU,-21.97,-5.86,-971.19,-1.62,0.18,1.29,11.25,44.25,-33.30,28.0
2026/04/13 14:47:50.52,IMU,-22.95,-12.21,-973.14,-1.82,1.31,0.80,10.80,41.70,-32.85,27.9
2026/04/13 14:47:50.62,IMU,-20.51,-19.04,-991.70,0.18,-1.66,2.10,12.15,42.15,-32.85,28.0
2026/04/13 14:47:50.72,IMU,-24.41,-10.25,-979.49,0.24,-0.87,1.08,11.25,42.30,-33.00,28.0
2026/04/13 14:47:50.82,IMU,-24.90,-17.58,-967.77,-1.11,-0.92,0.31,11.25,41.25,-32.70,28.0
2026/04/13 14:47:50.93,IMU,-11.23,-19.53,-977.05,-1.67,-0.26,-0.75,11.10,41.70,-32.85,27.8
2026/04/13 14:47:51.03,IMU,-11.72,-25.88,-983.40,1.20,-1.06,1.13,11.10,43.95,-32.55,28.2
2026/04/13 14:47:51.13,IMU,-29.30,-20.02,-979.49,-1.13,0.13,-0.31,12.60,42.15,-31.05,27.9
2026/04/13 14:47:51.23,IMU,-20.51,-18.07,-977.54,-0.65,-1.22,3.05,9.60,42.45,-32.55,28.0
2026/04/13 14:47:51.33,IMU,-21.48,-14.65,-974.61,-1.14,-0.40,2.63,11.10,42.45,-32.55,28.0
2026/04/13 14:47:51.43,IMU,-14.16,-15.63,-981.45,-1.44,-1.18,0.11,10.95,42.30,-33.30,28.0
2026/04/13 14:47:51.53,IMU,-13.67,-14.16,-967.29,0.50,2.27,-1.85,12.00,42.75,-33.30,28.0
2026/04/13 14:47:51.63,IMU,-23.44,-20.02,-974.12,-2.44,0.06,0.63,11.55,42.15,-32.85,28.1
2026/04/13 14:47:51.73,IMU,-20.02,-15.63,-958.98,-1.90,1.76,-0.07,11.10,41.70,-33.15,27.7
2026/04/13 14:47:51.83,IMU,-27.34,-20.51,-961.91,0.78,1.40,0.59,10.20,40.50,-29.55,28.2
2026/04/13 14:47:51.93,IMU,-26.86,-11.23,-974.61,0.23,-0.27,0.05,11.10,42.15,-34.20,28.1
2026/04/13 14:47:52.03,IMU,-25.39,-6.35,-975.59,-1.74,0.98,0.92,10.95,44.25,-31.95,27.9
2026/04/13 14:47:52.13,IMU,-19.53,-27.83,-974.61,-1.18,-2.07,-1.86,11.25,42.30,-32.70,28.0
2026/04/13 14:47:52.23,IMU,-19.04,-1.46,-979.49,-1.98,-0.63,1.62,10.80,42.15,-33.60,27.8
2026/04/13 14:47:52.34,IMU,-19.04,-5.37,-982.91,-0.33,0.02,5.07,10.95,42.75,-32.25,28.0
2026/04/13 14:47:52.44,IMU,-12.21,-17.09,-980.96,-1.62,-1.49,3.36,10.20,42.00,-32.70,28.1
2026/04/13 14:47:52.54,IMU,-12.21,-9.28,-983.89,-0.10,-2.34,0.73,10.35,40.65,-32.55,28.0
2026/04/13 14:47:52.64,IMU,-23.44,-16.60,-972.66,-0.66,0.71,-0.91,9.45,41.55,-32.25,27.8
2026/04/13 14:47:52.74,IMU,-13.67,-19.04,-971.19,-1.19,-1.24,1.89,11.70,41.55,-32.70,28.0
2026/04/13 14:47:52.84,IMU,-17.58,-2.44,-963.38,-1.97,-2.24,-0.52,7.65,42.00,-27.30,28.0
2026/04/13 14:47:52.94,IMU,-21.48,-12.70,-970.70,-0.47,-0.80,3.24,11.10,41.40,-32.85,28.0
2026/04/13 14:47:53.04,IMU,-18.55,-29.30,-986.33,-1.35,0.54,1.92,11.25,40.50,-32.25,28.0
2026/04/13 14:47:53.14,IMU,-18.55,0.00,-967.29,1.44,-1.83,-3.18,11.25,42.75,-32.70,28.0
2026/04/13 14:47:53.24,IMU,-21.00,-15.14,-982.42,0.67,-1.60,0.29,11.25,41.55,-31.95,28.0
2026/04/13 14:47:53.34,IMU,-21.00,-17.58,-979.98,-0.15,-1.65,1.02,11.25,42.75,-34.05,27.8
2026/04/13 14:47:53.44,IMU,-18.07,-14.65,-966.80,0.26,-2.25,0.10,11.70,42.75,-33.00,27.9
2026/04/13 14:47:53.54,IMU,-22.46,-5.37,-969.24,0.31,-3.45,-0.87,10.95,41.25,-31.95,27.9
2026/04/13 14:47:53.65,IMU,-26.37,-21.97,-977.54,-1.31,-0.11,2.15,10.50,42.00,-32.25,28.0
2026/04/13 14:47:53.75,IMU,-21.48,-10.25,-975.10,-2.02,-2.13,-0.92,10.50,42.00,-32.70,28.0
2026/04/13 14:47:53.85,IMU,-20.51,-4.39,-969.24,0.54,-0.31,-0.08,10.50,43.05,-33.75,27.9
2026/04/13 14:47:53.96,IMU,-16.60,-11.23,-964.84,1.35,2.71,1.56,11.55,42.45,-33.15,27.8
2026/04/13 14:47:54.06,IMU,-22.95,-16.60,-976.07,-0.76,0.16,-1.18,10.95,42.00,-33.75,27.9
2026/04/13 14:47:54.16,IMU,-26.86,-3.42,-977.54,-0.63,-0.68,-2.10,11.25,41.25,-32.25,28.2
2026/04/13 14:47:54.26,IMU,-27.34,-17.58,-979.98,1.11,-0.30,0.48,12.15,41.40,-33.60,28.0
2026/04/13 14:47:54.36,IMU,-22.46,-11.23,-971.19,-0.60,1.33,1.38,10.80,41.40,-33.15,27.8
2026/04/13 14:47:54.46,IMU,-18.55,-10.74,-985.35,-0.95,-1.83,-2.67,11.70,41.55,-33.00,27.9
2026/04/13 14:47:54.56,IMU,-38.09,-17.09,-976.56,1.21,0.69,-1.98,11.85,41.10,-32.85,28.0
2026/04/13 14:47:54.66,IMU,-11.23,-25.39,-986.82,-0.24,-0.60,-1.55,10.80,43.65,-32.85,27.8
2026/04/13 14:47:54.76,IMU,-2.44,-2.93,-976.07,0.37,0.49,-1.45,12.15,42.15,-32.85,27.6
2026/04/13 14:47:54.86,IMU,-23.44,-9.77,-987.79,1.07,-0.72,-0.39,11.25,42.75,-32.25,27.9
2026/04/13 14:47:54.96,IMU,-31.74,-9.28,-987.79,-1.99,-2.37,1.73,11.55,42.90,-32.10,27.8
2026/04/13 14:47:55.06,IMU,-21.48,-2.93,-973.14,-0.72,-1.33,-0.63,10.95,41.25,-33.30,27.6
2026/04/13 14:47:55.16,IMU,-31.25,-12.21,-981.45,-1.16,0.47,-0.13,11.55,42.90,-33.90,28.0
2026/04/13 14:47:55.26,IMU,-18.55,-5.86,-970.21,-1.11,-0.30,-2.76,10.80,40.65,-32.85,28.2
2026/04/13 14:47:55.37,IMU,-24.90,5.37,-975.59,0.03,-0.85,0.43,11.10,42.90,-31.80,28.0
2026/04/13 14:47:55.47,IMU,-20.02,-12.21,-987.79,-1.79,-1.28,1.17,10.35,42.45,-32.55,28.1
2026/04/13 14:47:55.57,IMU,-20.51,-14.65,-978.03,-0.63,1.50,-1.73,12.00,41.55,-33.30,28.0
2026/04/13 14:47:55.67,IMU,-20.02,-11.23,-979.98,1.39,-2.24,-0.36,10.95,42.30,-33.00,28.0
2026/04/13 14:47:55.77,IMU,-22.95,-11.23,-964.84,-1.08,-0.71,1.21,10.35,42.90,-34.20,27.9
2026/04/13 14:47:55.87,IMU,-31.25,-12.70,-967.77,-0.11,-0.57,1.93,11.25,41.55,-33.30,27.8
2026/04/13 14:47:55.97,IMU,-23.44,-3.91,-974.12,-1.73,-0.74,1.78,9.90,42.00,-33.30,28.2
2026/04/13 14:47:56.07,IMU,-27.83,-18.07,-976.07,-0.36,-0.16,-0.69,10.05,40.65,-32.55,27.8
2026/04/13 14:47:56.17,IMU,-21.97,-15.14,-962.40,0.03,-1.73,-0.98,11.25,42.30,-32.25,28.0
2026/04/13 14:47:56.27,IMU,-30.76,-13.67,-981.93,-1.40,0.11,1.24,12.45,42.30,-34.05,27.8
2026/04/13 14:47:56.37,IMU,-20.02,-23.93,-966.80,-0.97,0.62,-0.63,10.50,42.00,-32.70,27.8
2026/04/13 14:47:56.47,IMU,-21.48,-19.04,-979.00,0.48,-2.19,-0.57,10.80,41.10,-33.90,27.8
2026/04/13 14:47:56.57,IMU,-39.06,-14.65,-967.77,-1.56,0.29,-0.30,11.85,41.10,-32.85,28.0
2026/04/13 14:47:56.67,IMU,-22.95,-9.77,-972.17,-1.12,-1.37,-0.66,11.85,41.40,-32.55,28.1
2026/04/13 14:47:56.78,IMU,-25.39,-12.70,-971.68,-1.66,-0.07,0.92,11.10,42.45,-31.80,28.2
2026/04/13 14:47:56.88,IMU,-8.79,-18.55,-980.96,-1.08,0.40,0.08,11.55,41.10,-33.15,28.0
2026/04/13 14:47:56.98,IMU,-33.20,-13.18,-977.05,0.21,0.71,-1.34,11.70,42.00,-32.25,28.0
2026/04/13 14:47:57.08,IMU,-17.09,-17.58,-982.91,-2.47,0.73,1.31,12.00,42.75,-32.25,28.0
2026/04/13 14:47:57.18,IMU,-21.48,-18.07,-978.03,0.08,-1.31,0.08,10.80,42.90,-33.15,27.9
2026/04/13 14:47:57.28,IMU,-21.48,-15.63,-972.66,0.01,-0.79,-0.31,10.95,41.55,-32.70,28.0
2026/04/13 14:47:57.38,IMU,-20.51,-22.46,-978.03,0.67,-0.74,1.19,12.15,42.15,-33.15,27.8
2026/04/13 14:47:57.48,IMU,-11.72,-21.48,-972.66,-1.38,-0.50,2.59,11.70,42.00,-31.95,27.8
2026/04/13 14:47:57.58,IMU,-29.79,-8.30,-976.07,-0.95,-0.75,-0.27,10.50,42.00,-33.00,28.0
2026/04/13 14:47:57.68,IMU,-22.46,-15.14,-980.96,-0.98,-1.16,-1.58,11.25,40.50,-31.95,28.0
2026/04/13 14:47:57.78,IMU,-30.76,-9.77,-984.86,-0.54,1.22,-0.55,10.80,42.15,-32.85,28.0
2026/04/13 14:47:57.88,IMU,-29.79,-19.04,-966.31,-0.89,-1.12,-0.69,12.60,42.15,-32.10,28.2
2026/04/13 14:47:57.98,IMU,-10.74,-11.23,-975.10,0.87,-0.30,1.77,10.80,42.45,-32.10,28.1
2026/04/13 14:47:58.09,IMU,-17.58,-9.28,-967.77,0.61,-0.22,0.72,12.15,41.40,-33.15,28.1
2026/04/13 14:47:58.19,IMU,-12.21,-22.46,-977.05,-0.95,-0.06,0.21,10.50,42.75,-33.00,28.0
2026/04/13 14:47:58.29,IMU,-18.07,-21.48,-976.07,-0.04,-1.20,2.60,10.20,42.30,-33.00,27.8
2026/04/13 14:47:58.39,IMU,-12.21,-7.32,-975.10,-0.24,-3.95,-0.37,10.20,42.30,-34.50,28.0
2026/04/13 14:47:58.49,IMU,-27.83,-17.09,-969.24,-1.89,-1.49,1.43,11.85,41.40,-32.85,27.8
2026/04/13 14:47:58.59,IMU,-23.44,-24.90,-972.66,-1.81,-1.06,0.71,10.80,41.10,-32.85,27.7
2026/04/13 14:47:58.69,IMU,-22.95,-8.30,-980.96,-1.65,-1.18,0.27,10.80,41.10,-33.90,28.0
2026/04/13 14:47:58.79,IMU,-12.70,-6.84,-977.05,-1.24,-2.41,0.67,11.25,43.05,-33.00,28.0
2026/04/13 14:47:58.89,IMU,-19.04,-3.91,-978.03,-0.02,-0.28,-1.18,10.20,41.55,-33.75,28.0
2026/04/13 14:47:58.99,IMU,-20.51,-13.67,-975.59,-1.37,0.27,1.89,11.70,41.55,-33.30,28.0
2026/04/13 14:47:59.09,IMU,-11.23,-15.63,-978.52,-2.15,0.50,0.82,11.55,43.20,-31.80,27.9
2026/04/13 14:47:59.19,IMU,-22.46,-25.39,-968.26,-0.81,0.68,1.13,11.25,42.75,-31.95,27.9
2026/04/13 14:47:59.29,IMU,-12.70,-21.00,-972.17,-1.23,-1.68,2.02,10.50,42.30,-33.30,27.8
2026/04/13 14:47:59.39,IMU,-23.93,-25.39,-966.80,-0.45,-1.14,1.81,11.25,42.00,-32.25,27.9
2026/04/13 14:47:59.50,IMU,-18.07,0.00,-972.17,0.47,-0.53,1.51,10.80,42.90,-32.55,27.9
2026/04/13 14:47:59.60,IMU,-22.46,-18.55,-976.07,0.21,-0.72,-1.92,10.35,42.45,-32.10,27.8
2026/04/13 14:47:59.70,IMU,-24.41,-25.88,-978.52,-1.72,-2.40,2.63,11.25,41.55,-34.05,28.0
2026/04/13 14:47:59.80,IMU,-19.04,-9.77,-979.00,0.66,-1.67,0.86,12.00,41.25,-32.25,28.1
2026/04/13 14:47:59.90,IMU,-19.53,-17.58,-972.17,-0.53,-0.12,0.46,10.80,41.10,-32.85,28.0
2026/04/13 14:48:00.00,IMU,-28.32,-8.30,-972.17,-0.37,-0.87,-1.60,10.20,41.55,-32.25,28.0
2026/04/13 14:48:00.10,IMU,-27.83,-16.11,-979.98,-1.23,-0.06,0.99,10.80,41.70,-33.60,28.0
2026/04/13 14:48:00.20,IMU,-21.48,-9.28,-981.45,2.04,-1.14,-1.62,11.55,43.20,-34.20,27.9
2026/04/13 14:48:00.30,IMU,-24.90,-12.21,-972.66,-0.94,0.29,-1.80,9.45,42.75,-31.20,27.9
2026/04/13 14:48:00.40,IMU,-26.37,-11.23,-973.63,-0.88,0.99,0.60,11.55,42.90,-33.15,27.7
2026/04/13 14:48:00.50,IMU,-21.00,-5.37,-975.10,-0.05,0.27,3.13,11.10,41.70,-33.15,27.9
2026/04/13 14:48:00.60,IMU,-11.23,-4.39,-973.63,-0.09,-0.09,0.98,10.50,42.00,-33.30,28.1
2026/04/13 14:48:00.70,IMU,-16.60,-18.55,-977.05,-1.07,-0.15,1.60,12.15,41.70,-32.85,28.1
2026/04/13 14:48:00.80,IMU,-22.95,-8.79,-971.19,-1.76,1.61,-0.90,12.15,42.45,-32.55,28.0
2026/04/13 14:48:00.91,IMU,-34.67,-11.23,-974.61,-2.17,-0.86,0.14,10.50,42.00,-32.70,28.1
2026/04/13 14:48:01.01,IMU,-12.70,-9.77,-972.66,-2.51,1.80,3.22,9.00,41.10,-30.00,28.0
2026/04/13 14:48:01.11,IMU,-20.02,-7.81,-973.14,-0.75,-0.74,-1.98,10.50,42.75,-32.25,27.9
2026/04/13 14:48:01.21,IMU,-20.02,-0.98,-976.56,-1.31,-1.44,-2.28,11.10,41.40,-33.15,28.0
2026/04/13 14:48:01.31,IMU,-19.53,-12.21,-974.12,-1.69,0.53,1.32,11.55,43.20,-32.55,27.8
2026/04/13 14:48:01.41,IMU,-28.81,-15.14,-972.66,-2.80,-1.69,0.10,10.95,42.00,-31.65,27.9
2026/04/13 14:48:01.51,IMU,-18.55,-14.16,-974.12,-0.56,1.76,-2.91,10.80,41.40,-33.60,27.6
2026/04/13 14:48:01.61,IMU,-24.90,-14.65,-974.12,-2.23,-0.60,0.73,12.15,42.15,-32.85,27.6
2026/04/13 14:48:01.71,IMU,-11.72,-7.81,-974.61,0.07,2.08,3.14,9.30,41.10,-33.15,27.8
2026/04/13 14:48:01.81,IMU,-8.79,-9.77,-966.80,-0.46,-2.32,1.18,10.50,43.05,-33.30,28.0
2026/04/13 14:48:01.91,IMU,-27.83,-13.18,-981.45,-2.51,-2.54,-4.23,10.50,41.55,-32.25,27.7
2026/04/13 14:48:02.01,IMU,-15.63,-22.46,-975.10,-1.27,-0.07,-0.86,8.25,39.90,-27.90,28.0
2026/04/13 14:48:02.11,IMU,-15.14,-12.70,-978.52,-0.57,-1.40,-2.52,10.80,42.90,-33.60,27.9
2026/04/13 14:48:02.21,IMU,-25.39,-9.28,-979.49,0.37,3.44,0.21,11.25,42.30,-31.20,28.0
2026/04/13 14:48:02.32,IMU,-16.60,-14.65,-969.24,-0.33,-0.47,-0.04,10.95,42.75,-34.05,28.0
2026/04/13 14:48:02.42,IMU,-18.07,-17.09,-965.33,0.32,-0.18,-1.99,12.45,42.00,-32.70,27.8
2026/04/13 14:48:02.52,IMU,-18.55,-8.79,-966.31,-0.46,-0.02,-1.05,9.30,42.45,-33.15,28.0
2026/04/13 14:48:02.62,IMU,-21.48,-30.76,-977.54,-0.70,-2.05,-0.58,11.25,42.00,-32.70,27.8
2026/04/13 14:48:02.72,IMU,-15.14,-7.81,-960.94,-1.27,-1.08,1.12,11.25,42.00,-34.05,28.0
2026/04/13 14:48:02.82,IMU,-12.70,-21.97,-979.00,-0.12,-0.53,-1.53,10.95,42.00,-31.95,28.0
2026/04/13 14:48:02.92,IMU,-22.95,-15.63,-978.03,-1.05,-1.50,1.33,10.80,43.95,-33.15,27.8
2026/04/13 14:48:03.03,IMU,-25.88,-17.09,-974.12,-0.42,0.41,0.08,11.10,40.65,-31.35,28.0
2026/04/13 14:48:03.13,IMU,-32.71,-16.60,-981.93,-0.03,-1.46,2.98,11.55,41.70,-33.15,28.1
2026/04/13 14:48:03.23,IMU,-14.16,-14.16,-965.33,0.23,0.58,2.56,11.10,42.15,-33.90,27.8
2026/04/13 14:48:03.33,IMU,-10.74,-9.28,-983.40,-1.47,-1.65,1.35,10.05,43.65,-32.10,28.1
2026/04/13 14:48:03.43,IMU,-15.63,-0.98,-976.56,-1.33,-1.27,-0.11,11.85,42.15,-32.55,27.9
2026/04/13 14:48:03.53,IMU,-9.28,-21.00,-971.19,0.32,-1.19,0.20,12.15,41.70,-33.15,28.0
2026/04/13 14:48:03.63,IMU,-28.81,-10.74,-974.61,-1.64,-1.05,-0.20,10.80,41.70,-32.10,28.0
2026/04/13 14:48:03.73,IMU,-16.11,-9.77,-979.49,1.21,0.39,-0.53,11.25,42.75,-33.00,27.9
2026/04/13 14:48:03.84,IMU,-19.53,-12.70,-986.82,0.21,-2.22,0.64,10.35,42.45,-32.85,28.0
2026/04/13 14:48:03.94,IMU,-17.09,-13.18,-969.24,0.69,0.95,0.79,12.00,41.25,-31.65,27.9
2026/04/13 14:48:04.04,IMU,-8.30,-7.32,-973.14,1.52,-0.74,-1.08,11.70,42.00,-34.50,28.0
2026/04/13 14:48:04.14,IMU,-28.32,-18.07,-971.68,-1.63,1.05,0.33,12.15,43.20,-33.90,28.0
2026/04/13 14:48:04.24,IMU,-17.09,-6.84,-988.77,-0.12,-1.15,2.75,10.95,43.50,-31.95,28.1
2026/04/13 14:48:04.34,IMU,-13.18,-18.55,-982.91,-1.56,-0.50,1.81,10.35,41.40,-32.85,27.9
2026/04/13 14:48:04.44,IMU,-38.09,-13.67,-983.89,-1.07,-0.31,0.92,11.55,42.45,-32.55,28.0
2026/04/13 14:48:04.54,IMU,-33.20,-12.21,-976.07,-1.32,0.89,0.37,10.80,41.70,-32.10,28.0
2026/04/13 14:48:04.64,IMU,-11.72,-6.84,-978.03,-0.30,-2.24,-2.38,10.50,43.05,-32.25,28.0
2026/04/13 14:48:04.74,IMU,-20.02,-21.48,-966.80,0.01,-2.03,0.02,10.80,42.45,-33.15,28.0
2026/04/13 14:48:04.84,IMU,-25.39,-13.67,-980.96,-1.56,-0.73,-1.74,12.15,42.15,-34.20,28.0
2026/04/13 14:48:04.94,IMU,-20.02,-4.88,-963.87,-0.60,-2.92,1.66,10.80,43.20,-32.85,28.0
2026/04/13 14:48:05.04,IMU,-29.30,-11.72,-975.59,0.26,-3.56,0.22,11.70,42.30,-33.00,28.0
2026/04/13 14:48:05.15,IMU,-23.44,-12.70,-973.14,1.00,-0.85,0.63,9.45,43.05,-32.70,28.0
2026/04/13 14:48:05.25,IMU,-26.86,-3.91,-983.40,-2.64,-0.63,0.56,11.70,43.05,-33.30,28.0
2026/04/13 14:48:05.35,IMU,-21.00,-0.49,-977.54,0.88,0.84,-0.05,10.95,43.50,-33.30,28.2
2026/04/13 14:48:05.45,IMU,-3.42,-5.86,-977.05,0.68,-0.16,0.65,10.80,40.65,-33.15,27.6
2026/04/13 14:48:05.55,IMU,-24.90,2.44,-968.75,0.15,-2.56,-0.85,10.95,42.30,-32.25,28.0
2026/04/13 14:48:05.65,IMU,-15.14,-27.83,-974.61,-1.44,1.26,0.60,10.95,42.30,-32.70,28.0
2026/04/13 14:48:05.75,IMU,-18.55,-6.84,-977.54,-2.04,-3.53,-1.00,10.95,41.55,-33.30,27.8
2026/04/13 14:48:05.85,IMU,-16.11,-16.11,-978.52,0.89,-2.26,1.86,10.95,41.25,-33.00,28.0
2026/04/13 14:48:05.95,IMU,-19.04,-21.00,-969.73,-0.32,-1.52,0.34,10.80,42.15,-33.60,28.0
2026/04/13 14:48:06.05,IMU,-17.58,-10.74,-978.03,-0.37,-3.33,-0.05,12.00,41.55,-33.30,28.0
2026/04/13 14:48:06.15,IMU,-10.74,-12.70,-980.47,0.03,0.76,-1.29,10.20,42.00,-33.00,28.2
2026/04/13 14:48:06.25,IMU,-22.46,-16.60,-979.49,-1.70,0.95,1.15,10.20,42.00,-32.70,28.0
2026/04/13 14:48:06.35,IMU,-9.28,-13.67,-978.03,-0.77,-3.75,1.17,10.50,42.00,-33.00,28.0
2026/04/13 14:48:06.45,IMU,-20.02,-4.39,-968.75,0.98,-1.24,0.40,11.70,42.30,-32.70,27.9
2026/04/13 14:48:06.56,IMU,-17.09,-16.11,-966.80,-0.89,-0.02,2.21,11.25,42.30,-33.75,28.0
2026/04/13 14:48:06.66,IMU,-12.70,-7.81,-982.91,-2.01,-0.59,0.81,11.85,41.70,-33.15,28.0
2026/04/13 14:48:06.76,IMU,-16.11,-14.65,-984.38,0.14,1.03,2.57,10.50,42.75,-34.05,27.6
2026/04/13 14:48:06.86,IMU,-28.81,-9.77,-980.47,-1.58,-0.38,1.74,10.95,42.30,-34.05,28.0
2026/04/13 14:48:06.96,IMU,-15.63,-24.41,-975.59,-0.74,-2.69,1.98,11.25,42.75,-34.05,28.0
2026/04/13 14:48:07.06,IMU,-12.21,-3.42,-989.75,-0.42,-0.88,0.76,10.95,42.75,-33.00,28.1
2026/04/13 14:48:07.16,IMU,-27.83,-14.65,-979.98,-0.79,-1.26,1.69,9.45,41.25,-33.00,28.1
2026/04/13 14:48:07.26,IMU,-21.00,-10.74,-972.17,-1.73,-3.02,-3.02,11.70,41.55,-31.20,27.8
2026/04/13 14:48:07.36,IMU,-21.97,-3.42,-979.00,1.66,-0.04,1.53,10.80,41.40,-33.90,28.0
2026/04/13 14:48:07.46,IMU,-21.00,-6.84,-980.47,-1.31,-2.90,1.52,12.00,42.75,-33.00,28.0
2026/04/13 14:48:07.56,IMU,-30.27,-4.88,-982.42,0.69,-2.95,1.19,11.10,42.15,-32.85,27.9
2026/04/13 14:48:07.66,IMU,-18.07,-16.60,-980.47,-2.11,-0.64,0.17,10.95,43.50,-33.30,27.9
2026/04/13 14:48:07.76,IMU,-15.63,-15.14,-966.80,-0.07,-1.08,0.04,10.80,42.15,-32.55,27.8
2026/04/13 14:48:07.86,IMU,-18.07,-5.86,-978.03,0.18,0.78,1.00,10.95,42.75,-33.00,27.9
2026/04/13 14:48:07.97,IMU,-29.79,-5.86,-978.52,-0.09,-4.92,0.37,10.80,42.45,-33.90,27.8
2026/04/13 14:48:08.07,IMU,-17.58,-21.48,-975.59,2.20,0.85,-1.28,11.70,42.00,-33.30,28.0
2026/04/13 14:48:08.17,IMU,-14.65,-12.70,-979.00,-1.35,-1.76,-0.62,11.10,43.65,-31.35,28.0
2026/04/13 14:48:08.27,IMU,-21.97,-23.44,-971.68,1.15,-0.73,3.12,11.10,41.40,-32.85,28.0
2026/04/13 14:48:08.37,IMU,-17.09,-12.21,-980.96,0.21,-3.46,-0.78,10.80,41.40,-33.15,28.0
2026/04/13 14:48:08.47,IMU,-31.74,-18.55,-974.61,0.24,-0.35,1.20,11.25,42.00,-33.30,28.0
2026/04/13 14:48:08.57,IMU,-10.74,-11.23,-981.45,-0.18,1.85,1.20,11.85,41.70,-33.15,27.9
2026/04/13 14:48:08.67,IMU,-38.09,-3.42,-970.21,-0.84,-0.63,-0.02,11.70,43.05,-33.00,28.0
2026/04/13 14:48:08.77,IMU,-16.11,-3.91,-980.47,0.18,0.33,3.37,9.60,42.15,-32.55,28.0
2026/04/13 14:48:08.87,IMU,-13.18,-7.32,-974.12,0.02,-0.30,-0.14,10.80,42.90,-32.55,27.7
2026/04/13 14:48:08.97,IMU,-36.62,-8.30,-965.33,-0.41,0.73,2.27,10.05,42.45,-33.60,27.9
2026/04/13 14:48:09.07,IMU,-20.02,-23.93,-974.12,0.76,-0.60,-1.27,11.85,42.90,-33.15,28.0
2026/04/13 14:48:09.17,IMU,-10.74,-7.81,-974.12,-1.31,-1.20,0.20,11.10,41.40,-33.60,27.9
2026/04/13 14:48:09.28,IMU,-21.48,-21.97,-974.12,0.46,0.63,-1.30,11.10,43.65,-32.85,27.9
2026/04/13 14:48:09.38,IMU,-12.70,0.98,-968.26,0.02,1.68,0.53,11.10,41.70,-33.90,28.0
2026/04/13 14:48:09.48,IMU,-27.34,-25.88,-981.45,-0.98,0.22,0.11,10.80,41.70,-32.85,27.9
2026/04/13 14:48:09.58,IMU,-28.32,-15.63,-986.82,-1.11,0.38,0.80,10.95,42.30,-32.25,28.3
2026/04/13 14:48:09.68,IMU,-21.48,-6.35,-972.66,-0.03,-0.54,2.24,10.35,42.45,-32.85,27.9
2026/04/13 14:48:09.78,IMU,-24.90,-9.77,-980.96,-2.05,-1.15,1.99,11.55,40.65,-32.85,28.2
2026/04/13 14:48:09.88,IMU,-28.32,-14.16,-977.05,-1.05,-0.07,-0.40,11.70,40.80,-33.30,28.0
2026/04/13 14:48:09.98,IMU,-16.60,-9.28,-978.03,-1.23,-2.40,2.63,11.55,42.45,-32.85,27.9
2026/04/13 14:48:10.08,IMU,-26.37,-20.51,-973.14,0.21,-3.58,-0.94,11.85,41.70,-34.65,27.6
2026/04/13 14:48:10.18,IMU,-17.09,-9.77,-970.70,0.18,-1.31,2.32,8.55,40.65,-30.75,27.6
2026/04/13 14:48:10.28,IMU,-28.81,-20.02,-977.05,-1.60,-3.12,0.07,11.55,42.45,-32.85,27.8
2026/04/13 14:48:10.38,IMU,-19.53,-26.37,-971.19,-1.47,-0.88,-1.85,10.50,42.75,-33.30,28.0
2026/04/13 14:48:10.48,IMU,-33.69,-13.67,-973.14,-0.51,-0.79,-0.83,10.20,43.05,-33.00,28.0
2026/04/13 14:48:10.58,IMU,-30.76,-13.18,-988.28,0.67,1.13,0.37,11.85,42.45,-32.10,28.0
2026/04/13 14:48:10.69,IMU,-21.97,-4.39,-977.05,-0.42,-0.82,0.50,11.70,42.75,-31.95,27.7
2026/04/13 14:48:10.79,IMU,-17.58,-3.91,-985.35,-0.79,-1.33,-1.29,11.10,42.45,-34.20,28.2
2026/04/13 14:48:10.89,IMU,-6.35,-15.63,-982.42,-1.21,1.29,-1.71,12.00,42.30,-33.75,28.0
2026/04/13 14:48:10.99,IMU,-17.09,-8.30,-982.91,-0.34,-1.24,0.23,11.25,42.75,-33.00,27.8
2026/04/13 14:48:11.09,IMU,-12.21,-20.51,-980.96,1.43,-0.05,0.75,10.95,43.05,-33.75,27.9
2026/04/13 14:48:11.19,IMU,-24.41,-19.53,-963.87,-1.50,1.44,0.04,10.80,40.35,-32.10,27.9
2026/04/13 14:48:11.29,IMU,-21.48,-8.30,-980.96,0.36,-0.77,1.32,12.00,42.75,-33.30,27.8
2026/04/13 14:48:11.39,IMU,-25.39,-14.65,-970.70,-0.50,0.71,2.33,11.55,41.40,-33.60,28.0
2026/04/13 14:48:11.49,IMU,-21.48,-17.09,-980.96,-0.26,-1.51,1.37,10.20,41.55,-31.20,27.9
2026/04/13 14:48:11.59,IMU,-25.39,-8.30,-977.05,-0.29,-2.15,2.06,11.55,41.40,-32.10,27.9
2026/04/13 14:48:11.69,IMU,-22.46,-10.25,-979.49,0.17,-2.88,0.92,10.50,42.75,-33.30,28.0
2026/04/13 14:48:11.79,IMU,-35.16,-11.72,-985.84,-1.98,-0.17,-0.96,11.25,41.55,-31.65,28.2
2026/04/13 14:48:11.89,IMU,-20.51,-17.58,-969.24,0.00,-3.21,1.18,11.10,42.15,-32.10,28.0
2026/04/13 14:48:11.99,IMU,-13.67,-20.02,-964.36,-1.70,0.35,1.26,10.95,42.30,-32.70,27.9
2026/04/13 14:48:12.10,IMU,-20.51,-19.53,-971.68,-2.21,1.03,0.31,10.50,42.00,-32.25,27.8
2026/04/13 14:48:12.20,IMU,-32.23,-5.86,-976.07,-1.08,-1.34,-0.56,8.10,39.75,-29.10,28.0
2026/04/13 14:48:12.31,IMU,-13.67,-8.30,-980.96,-1.86,-2.67,1.09,10.35,41.70,-34.20,27.9
2026/04/13 14:48:12.41,IMU,-11.23,-9.77,-980.96,-2.60,-0.34,-2.79,10.80,41.10,-33.15,28.2
2026/04/13 14:48:12.51,IMU,-24.41,-11.23,-985.84,-1.63,-2.27,0.86,12.45,43.05,-33.30,27.8
2026/04/13 14:48:12.61,IMU,-19.04,-22.95,-979.49,-2.37,0.53,0.35,10.80,42.15,-31.80,27.9
2026/04/13 14:48:12.71,IMU,-33.69,-4.39,-979.00,-0.62,0.73,0.95,10.20,41.25,-32.70,28.0
2026/04/13 14:48:12.81,IMU,-31.25,-12.70,-967.29,-0.60,1.77,-0.14,10.95,40.50,-33.75,27.9
2026/04/13 14:48:12.91,IMU,-26.37,-8.30,-970.70,-0.47,-1.53,0.87,10.35,42.90,-32.10,27.6
2026/04/13 14:48:13.01,IMU,-28.32,-10.25,-970.70,0.21,-0.11,-1.05,10.20,41.55,-34.50,27.8
2026/04/13 14:48:13.11,IMU,-35.64,-1.95,-971.68,-1.53,-0.32,1.62,11.55,41.40,-32.85,28.2
2026/04/13 14:48:13.21,IMU,-14.16,-11.23,-961.43,-1.24,-0.54,-0.20,12.60,41.10,-33.60,27.8
2026/04/13 14:48:13.31,IMU,-25.39,-7.81,-974.61,0.43,-0.51,-1.32,11.10,42.15,-31.80,27.7
2026/04/13 14:48:13.41,IMU,-20.51,-10.25,-976.56,0.18,0.69,0.30,10.95,43.05,-33.00,28.0
2026/04/13 14:48:13.51,IMU,-16.60,-20.51,-977.05,-0.88,1.64,0.75,11.85,42.45,-32.85,28.0
2026/04/13 14:48:13.61,IMU,-33.69,-21.00,-974.12,0.56,-2.60,0.48,11.55,42.45,-32.55,27.9
2026/04/13 14:48:13.72,IMU,-33.69,-6.35,-981.93,-0.05,-3.78,-3.84,11.10,43.95,-32.10,28.0
2026/04/13 14:48:13.82,IMU,-16.11,-16.11,-977.05,-1.30,-0.74,-2.63,10.35,42.90,-33.90,27.7
2026/04/13 14:48:13.92,IMU,-10.74,-14.65,-982.42,-0.68,-0.51,-0.63,11.55,42.90,-32.55,27.8
2026/04/13 14:48:14.02,IMU,-22.95,-7.81,-976.56,-0.59,2.75,0.11,11.10,42.15,-33.15,28.0
2026/04/13 14:48:14.12,IMU,-18.07,-5.86,-971.68,1.22,2.81,0.01,11.85,41.40,-32.85,27.7
2026/04/13 14:48:14.22,IMU,-33.20,-8.30,-974.12,0.68,-0.83,1.05,12.15,42.15,-32.85,27.8
2026/04/13 14:48:14.32,IMU,-17.09,-5.37,-967.29,0.58,-1.33,-0.98,12.45,42.30,-33.30,27.7
2026/04/13 14:48:14.42,IMU,-20.02,-16.60,-958.98,-0.37,-0.97,1.66,9.15,42.00,-33.75,27.6
2026/04/13 14:48:14.52,IMU,-22.95,2.93,-977.05,-0.02,0.49,0.41,10.95,42.00,-32.25,27.8
2026/04/13 14:48:14.62,IMU,-36.62,-17.58,-971.19,-1.02,-1.65,4.87,9.90,42.75,-31.95,28.0
2026/04/13 14:48:14.72,IMU,-20.51,-7.81,-977.54,-0.89,1.81,-1.82,10.50,41.25,-32.70,28.0
2026/04/13 14:48:14.82,IMU,-19.53,-19.04,-971.19,-0.27,0.18,-0.05,11.85,41.10,-33.90,27.8
2026/04/13 14:48:14.92,IMU,-21.97,-3.91,-975.59,-1.30,1.47,-1.74,10.80,41.40,-32.10,28.0
2026/04/13 14:48:15.02,IMU,-25.39,-7.32,-973.63,-0.15,-0.50,0.45,10.95,42.00,-33.00,28.2
2026/04/13 14:48:15.13,IMU,-11.72,-19.04,-972.66,0.82,0.60,1.91,11.70,41.55,-34.05,27.9
2026/04/13 14:48:15.23,IMU,-28.81,-17.58,-979.98,-0.60,1.28,-0.73,10.50,42.00,-33.00,27.8
2026/04/13 14:48:15.33,IMU,-22.46,-22.46,-974.61,0.15,-0.11,-0.91,9.90,42.30,-33.30,27.7
2026/04/13 14:48:15.43,IMU,-11.23,-13.67,-981.45,-0.69,-2.06,-2.76,12.00,41.55,-34.05,28.0
2026/04/13 14:48:15.53,IMU,-26.86,-11.23,-966.80,-0.94,-0.92,-0.29,11.10,42.45,-32.85,27.9
2026/04/13 14:48:15.63,IMU,-9.28,-18.07,-971.19,-0.13,-0.99,-3.85,11.25,43.50,-33.00,27.9
2026/04/13 14:48:15.73,IMU,-10.74,-7.32,-972.66,-1.44,0.01,1.29,10.50,42.00,-32.25,28.0
2026/04/13 14:48:15.83,IMU,-18.07,-6.35,-972.66,-0.85,0.47,2.05,11.25,43.05,-34.50,28.0
2026/04/13 14:48:15.93,IMU,-13.18,-7.32,-987.30,-1.49,-0.62,-2.62,11.70,42.00,-31.20,28.0
2026/04/13 14:48:16.03,IMU,-32.23,-6.35,-968.26,-1.02,-1.18,0.18,10.50,41.25,-33.00,28.0
2026/04/13 14:48:16.13,IMU,-17.58,-15.14,-973.63,-0.05,0.18,-2.84,11.55,41.70,-33.15,28.0
2026/04/13 14:48:16.23,IMU,-77.64,-35.64,-959.96,-1.00,-1.38,-0.92,10.80,41.70,-32.85,28.0
2026/04/13 14:48:16.33,IMU,-21.00,-10.74,-980.47,-0.99,-3.28,3.57,10.80,41.40,-33.60,27.9
2026/04/13 14:48:16.44,IMU,0.49,-15.63,-980.96,1.40,0.06,0.13,12.00,42.00,-33.30,27.7
2026/04/13 14:48:16.54,IMU,21.48,-21.97,-703.61,-0.40,-2.67,7.78,10.35,42.15,-33.60,28.1
2026/04/13 14:48:16.64,IMU,-38.09,-31.74,-976.56,-1.95,-0.17,1.86,10.95,43.05,-32.70,28.0
2026/04/13 14:48:16.74,IMU,-21.00,-10.25,-971.68,-1.61,1.79,-1.31,11.70,41.25,-33.00,28.0
2026/04/13 14:48:16.84,IMU,-28.81,-14.16,-976.56,0.44,-1.61,-0.04,12.15,40.65,-33.60,27.8
2026/04/13 14:48:16.94,IMU,-30.76,-10.25,-985.35,1.02,1.38,-1.40,11.10,41.40,-33.15,28.1
2026/04/13 14:48:17.04,IMU,-23.44,-12.70,-980.96,0.02,-1.87,3.78,11.55,42.45,-32.55,28.0
2026/04/13 14:48:17.14,IMU,-15.63,-23.93,-911.62,1.04,-3.86,-0.44,10.95,42.00,-32.25,28.1
2026/04/13 14:48:17.24,IMU,-0.49,-4.39,-900.88,1.51,0.63,3.92,11.10,43.65,-32.55,27.9
