Timestamp,Sensor,AccX,AccY,AccZ,GyrX,GyrY,GyrZ,MagX,MagY,MagZ,Temp
2000/01/01 00:17:15.34,IMU,-72.27,-52.25,-962.89,-0.32,1.35,-1.40,-15.45,9.90,-30.30,29.8
2000/01/01 00:17:15.45,IMU,-66.41,-51.76,-972.66,-0.50,-0.92,-0.21,-14.25,10.80,-30.60,29.6
2000/01/01 00:17:15.55,IMU,-63.48,-48.34,-964.36,-0.11,-2.23,1.29,-16.65,10.50,-30.60,29.7
2000/01/01 00:17:15.65,IMU,-64.45,-53.22,-972.66,-3.81,-0.81,-3.06,-16.65,10.50,-30.90,29.2
2000/01/01 00:17:15.75,IMU,-73.24,-45.90,-979.00,-0.91,-0.89,0.76,-15.60,12.00,-30.90,29.6
2000/01/01 00:17:15.85,IMU,-70.31,-41.50,-973.63,-1.11,0.31,-2.56,-16.20,9.90,-31.05,29.8
2000/01/01 00:17:15.95,IMU,-65.43,-50.29,-966.31,-0.20,-3.79,-0.46,-15.30,12.00,-30.90,29.6
2000/01/01 00:17:16.05,IMU,-63.96,-38.57,-972.17,-1.56,0.74,0.04,-15.75,11.10,-30.75,29.6
2000/01/01 00:17:16.15,IMU,-64.45,-42.48,-976.07,-0.47,-1.36,-0.26,-15.15,9.90,-30.75,29.7
2000/01/01 00:17:16.25,IMU,-74.71,-61.52,-976.07,-1.34,-1.14,2.37,-15.15,11.10,-31.35,29.4
2000/01/01 00:17:16.35,IMU,-74.71,-41.02,-964.36,-1.59,-1.66,1.03,-14.40,9.90,-31.35,29.6
2000/01/01 00:17:16.45,IMU,-64.45,-41.99,-966.31,0.81,-0.31,-1.17,-15.30,10.50,-30.60,29.5
2000/01/01 00:17:16.55,IMU,-62.99,-44.92,-970.70,0.23,-2.35,-0.19,-15.60,10.80,-32.25,29.6
2000/01/01 00:17:16.65,IMU,-67.87,-42.97,-962.40,-1.55,0.70,0.03,-15.30,9.75,-30.15,29.6
2000/01/01 00:17:16.75,IMU,-65.43,-48.83,-969.73,0.31,0.60,-1.03,-17.10,9.75,-31.95,29.6
2000/01/01 00:17:16.85,IMU,-81.05,-49.80,-969.73,1.17,-2.77,0.15,-15.45,9.90,-31.35,29.7
2000/01/01 00:17:16.96,IMU,-68.36,-39.55,-978.52,0.92,0.77,1.14,-15.15,11.10,-30.30,29.6
2000/01/01 00:17:17.06,IMU,-66.41,-44.92,-960.94,-2.01,-0.75,-0.59,-14.25,9.75,-31.20,29.5
2000/01/01 00:17:17.16,IMU,-60.06,-36.62,-963.38,-2.31,0.60,0.61,-15.30,10.05,-30.90,29.6
2000/01/01 00:17:17.28,IMU,-59.57,-42.97,-963.87,-1.07,-0.92,-3.08,-15.45,11.10,-31.05,29.4
2000/01/01 00:17:17.38,IMU,-67.38,-42.97,-958.01,0.08,0.97,1.90,-15.15,10.65,-31.05,29.6
2000/01/01 00:17:17.48,IMU,-72.75,-44.43,-957.52,0.12,-0.02,-2.03,-14.25,9.30,-30.60,29.8
2000/01/01 00:17:17.58,IMU,-53.71,-49.80,-967.29,-1.46,-2.27,-1.84,-14.55,12.30,-30.90,29.5
2000/01/01 00:17:17.69,IMU,-46.39,-50.78,-958.01,-0.23,-2.06,0.98,-15.75,10.65,-30.75,29.8
2000/01/01 00:17:17.79,IMU,-69.34,-41.50,-972.66,0.00,1.97,-0.10,-15.30,10.80,-31.95,29.8
2000/01/01 00:17:17.89,IMU,-62.99,-45.41,-969.73,-1.28,0.11,-1.37,-14.70,11.10,-31.35,29.6
2000/01/01 00:17:17.99,IMU,-64.45,-54.20,-975.10,-0.52,0.95,-2.50,-14.85,10.05,-30.90,29.8
2000/01/01 00:17:18.09,IMU,-54.69,-53.22,-967.77,-0.02,-1.36,1.28,-14.40,10.65,-31.80,29.7
2000/01/01 00:17:18.19,IMU,-60.55,-47.36,-973.63,-1.21,0.01,-0.47,-14.55,9.00,-31.20,29.6
2000/01/01 00:17:18.29,IMU,-58.11,-33.20,-972.17,-0.97,0.54,-0.37,-14.70,9.60,-31.80,29.8
2000/01/01 00:17:18.39,IMU,-74.71,-45.90,-964.36,-1.50,0.71,-1.18,-14.40,8.85,-30.00,29.8
2000/01/01 00:17:18.49,IMU,-58.59,-35.16,-968.75,-0.57,2.64,-0.55,-14.55,11.25,-29.10,29.6
2000/01/01 00:17:18.59,IMU,-61.52,-55.18,-958.98,-1.02,-1.10,-1.35,-14.85,10.05,-31.20,29.6
2000/01/01 00:17:18.69,IMU,-70.80,-44.43,-971.19,-2.62,-2.09,2.20,-16.65,10.80,-32.70,29.4
2000/01/01 00:17:18.79,IMU,-55.18,-41.02,-968.75,-2.15,1.02,-1.74,-13.95,10.35,-31.05,29.4
2000/01/01 00:17:18.89,IMU,-57.62,-43.95,-967.29,-1.84,0.48,0.89,-16.20,9.90,-31.05,29.6
2000/01/01 00:17:18.99,IMU,-70.80,-51.27,-961.91,-2.14,-0.44,0.96,-15.15,11.10,-30.30,29.7
2000/01/01 00:17:19.09,IMU,-71.29,-21.97,-969.24,-1.73,-0.37,-4.15,-15.60,12.30,-29.85,29.6
2000/01/01 00:17:19.20,IMU,-62.50,-50.29,-969.24,-0.45,-1.52,-2.11,-15.75,8.40,-29.70,29.6
2000/01/01 00:17:19.30,IMU,-65.43,-46.88,-968.75,-1.32,1.40,0.30,-14.40,10.65,-30.30,29.6
2000/01/01 00:17:19.40,IMU,-58.59,-45.90,-977.54,-0.49,1.00,0.59,-15.15,9.60,-31.35,29.4
2000/01/01 00:17:19.50,IMU,-71.78,-44.92,-964.36,0.02,2.00,-0.96,-14.85,10.80,-31.20,29.6
2000/01/01 00:17:19.60,IMU,-70.80,-41.02,-980.96,-1.60,-1.06,2.63,-15.15,10.35,-30.30,29.3
2000/01/01 00:17:19.70,IMU,-63.96,-41.02,-971.68,-2.53,1.02,-0.63,-14.85,11.25,-32.70,29.6
2000/01/01 00:17:19.80,IMU,-66.41,-44.92,-971.68,0.46,-0.47,0.52,-15.15,10.35,-31.35,29.6
2000/01/01 00:17:19.90,IMU,-67.87,-45.90,-975.10,-1.79,-0.53,1.75,-14.55,10.50,-31.20,29.7
2000/01/01 00:17:20.00,IMU,-56.64,-50.29,-976.56,-0.63,-2.48,-1.12,-14.55,10.50,-31.20,29.6
2000/01/01 00:17:20.10,IMU,-73.24,-42.48,-966.80,-1.34,-1.42,0.21,-14.55,11.25,-30.60,29.6
2000/01/01 00:17:20.20,IMU,-66.89,-41.50,-981.45,-0.73,-1.62,1.55,-14.40,11.40,-31.35,29.5
2000/01/01 00:17:20.30,IMU,-71.78,-40.53,-975.10,-1.12,-2.03,-0.36,-15.30,10.05,-30.90,29.8
2000/01/01 00:17:20.40,IMU,-68.85,-54.69,-966.31,-0.41,-1.98,2.44,-15.75,9.60,-31.80,29.7
2000/01/01 00:17:20.50,IMU,-64.94,-49.32,-965.33,0.71,-0.23,1.04,-15.15,9.60,-31.05,29.8
2000/01/01 00:17:20.61,IMU,-57.13,-41.02,-969.24,-0.79,-3.99,-1.11,-15.45,10.35,-29.70,29.7
2000/01/01 00:17:20.71,IMU,-75.20,-41.99,-970.70,-1.05,0.91,-0.63,-16.05,10.50,-31.20,29.7
2000/01/01 00:17:20.81,IMU,-73.73,-51.27,-958.01,0.69,0.31,1.37,-15.30,10.05,-30.90,29.5
2000/01/01 00:17:20.91,IMU,-70.80,-44.92,-954.10,-0.14,0.50,0.15,-13.95,9.60,-30.00,29.6
2000/01/01 00:17:21.01,IMU,-55.66,-48.34,-967.77,-0.40,-1.27,-0.79,-15.45,11.85,-31.80,29.6
2000/01/01 00:17:21.11,IMU,-70.80,-51.76,-977.54,-2.18,-0.46,0.84,-15.30,10.50,-31.65,29.7
2000/01/01 00:17:21.21,IMU,-65.43,-35.64,-967.29,-2.53,-1.87,2.74,-15.15,10.35,-30.30,29.5
2000/01/01 00:17:21.31,IMU,-66.89,-41.50,-963.87,-0.23,-0.80,1.26,-13.95,10.35,-30.75,29.5
2000/01/01 00:17:21.41,IMU,-73.24,-50.78,-960.94,0.16,-2.02,-0.71,-14.40,10.35,-31.80,29.4
2000/01/01 00:17:21.51,IMU,-54.20,-50.29,-969.24,1.29,-1.56,-0.60,-14.85,9.75,-31.65,29.6
2000/01/01 00:17:21.61,IMU,-56.15,-47.36,-958.98,-0.31,1.24,0.77,-15.60,10.80,-31.20,29.4
2000/01/01 00:17:21.71,IMU,-58.59,-40.04,-973.14,-1.14,-0.24,2.18,-15.60,9.30,-30.60,29.6
2000/01/01 00:17:21.81,IMU,-60.06,-39.55,-977.54,-1.92,-1.70,-2.02,-15.45,9.60,-30.75,29.8
2000/01/01 00:17:21.91,IMU,-72.27,-42.97,-964.36,0.28,-1.79,2.64,-15.15,11.10,-30.00,29.6
2000/01/01 00:17:22.02,IMU,-70.31,-32.23,-970.70,0.96,-0.37,1.35,-15.30,10.50,-31.95,29.5
2000/01/01 00:17:22.12,IMU,-45.90,-37.60,-974.12,-0.90,0.34,-0.81,-15.60,10.50,-31.20,29.7
2000/01/01 00:17:22.22,IMU,-67.87,-32.71,-968.26,-0.40,0.62,-2.02,-13.95,11.85,-30.75,29.6
2000/01/01 00:17:22.32,IMU,-59.08,-35.64,-976.56,-0.42,-0.92,0.52,-15.60,11.55,-31.20,29.6
2000/01/01 00:17:22.42,IMU,-72.27,-35.64,-969.24,0.10,0.30,4.63,-13.35,9.60,-29.70,29.7
2000/01/01 00:17:22.52,IMU,-66.41,-38.57,-977.05,0.27,-0.13,0.89,-16.95,10.35,-27.90,29.6
2000/01/01 00:17:22.62,IMU,-67.87,-43.46,-963.38,0.72,-1.07,-0.27,-14.85,11.25,-30.15,29.8
2000/01/01 00:17:22.72,IMU,-61.04,-43.46,-979.49,0.76,-0.43,1.56,-13.65,10.65,-29.70,29.1
2000/01/01 00:17:22.82,IMU,-59.57,-51.27,-967.29,-1.66,-0.36,1.59,-16.05,9.30,-31.65,29.8
2000/01/01 00:17:22.92,IMU,-70.31,-42.97,-964.84,-1.13,-1.72,1.76,-15.15,11.10,-31.35,29.5
2000/01/01 00:17:23.02,IMU,-60.06,-53.22,-974.12,-2.05,-1.04,1.37,-14.85,10.05,-29.55,29.6
2000/01/01 00:17:23.12,IMU,-63.48,-46.88,-975.59,-1.61,-1.26,1.53,-16.65,10.50,-31.65,29.8
2000/01/01 00:17:23.22,IMU,-61.52,-48.83,-981.45,0.66,-0.25,-0.10,-15.60,9.30,-31.95,29.5
2000/01/01 00:17:23.32,IMU,-62.01,-43.95,-978.03,-1.31,1.64,-0.86,-15.75,11.85,-30.30,29.6
2000/01/01 00:17:23.42,IMU,-71.29,-49.32,-963.87,-0.66,-1.72,-1.74,-14.55,10.05,-31.20,29.4
2000/01/01 00:17:23.53,IMU,-81.05,-42.48,-969.73,-0.36,0.56,0.23,-16.20,8.85,-27.90,29.1
2000/01/01 00:17:23.63,IMU,-48.83,-36.62,-970.70,-0.66,1.15,0.92,-15.45,11.10,-31.05,29.6
2000/01/01 00:17:23.73,IMU,-61.04,-34.67,-960.94,0.44,-2.11,1.44,-15.75,10.35,-31.80,29.5
2000/01/01 00:17:23.83,IMU,-61.04,-44.92,-965.82,-0.74,-1.83,0.30,-14.40,9.60,-30.30,29.6
2000/01/01 00:17:23.93,IMU,-71.78,-45.90,-972.17,-0.91,0.05,1.18,-15.60,9.30,-29.10,29.8
2000/01/01 00:17:24.03,IMU,-57.13,-38.57,-970.21,-0.79,-0.88,0.49,-15.15,9.90,-30.75,29.4
2000/01/01 00:17:24.13,IMU,-63.48,-41.02,-966.80,-2.03,-1.92,0.22,-14.85,10.50,-30.60,29.5
2000/01/01 00:17:24.23,IMU,-72.27,-46.88,-974.12,-0.34,-0.61,-0.56,-14.55,10.80,-31.20,29.8
2000/01/01 00:17:24.33,IMU,-62.50,-41.99,-965.33,-0.76,0.91,0.70,-15.30,10.80,-30.90,29.6
2000/01/01 00:17:24.43,IMU,-63.96,-38.57,-986.33,-1.77,0.05,0.77,-14.70,11.10,-31.05,29.7
2000/01/01 00:17:24.54,IMU,-69.34,-43.95,-969.73,-0.85,2.33,-0.66,-18.75,9.15,-25.35,29.6
2000/01/01 00:17:24.64,IMU,-62.99,-40.53,-967.77,-1.19,-2.79,-0.32,-14.40,9.60,-31.05,29.6
2000/01/01 00:17:24.74,IMU,-62.99,-43.95,-966.31,1.73,0.88,-0.77,-15.15,10.35,-30.75,29.6
2000/01/01 00:17:24.84,IMU,-67.87,-37.60,-962.40,-1.31,0.82,0.84,-15.15,9.60,-30.75,29.5
2000/01/01 00:17:24.95,IMU,-73.24,-45.90,-981.93,-1.34,-1.73,-3.05,-15.45,11.40,-31.35,29.6
2000/01/01 00:17:25.05,IMU,-62.01,-44.43,-981.93,-1.13,-0.42,-0.66,-14.40,11.10,-30.30,29.6
2000/01/01 00:17:25.15,IMU,-69.82,-45.41,-969.73,0.05,0.56,-1.36,-14.55,10.50,-31.20,29.6
2000/01/01 00:17:25.25,IMU,-76.66,-47.36,-961.43,0.06,-1.27,-0.02,-14.55,9.30,-30.60,29.6
2000/01/01 00:17:25.35,IMU,-72.75,-41.50,-974.61,-0.29,-0.78,-2.93,-15.75,9.90,-31.05,29.5
2000/01/01 00:17:25.45,IMU,-63.48,-32.23,-976.56,1.11,-0.40,-0.49,-15.30,10.80,-30.60,29.5
2000/01/01 00:17:25.55,IMU,-56.64,-47.36,-979.00,-0.05,-2.63,2.52,-15.15,11.10,-32.55,29.3
2000/01/01 00:17:25.65,IMU,-53.22,-48.83,-978.52,-0.95,1.05,3.24,-14.85,10.05,-30.90,29.6
2000/01/01 00:17:25.75,IMU,-70.80,-48.83,-977.05,-1.75,-0.57,-1.63,-15.60,10.50,-30.90,29.5
2000/01/01 00:17:25.85,IMU,-67.38,-35.16,-977.05,0.96,-0.51,0.27,-14.70,11.10,-30.00,29.5
2000/01/01 00:17:25.95,IMU,-55.66,-43.46,-972.17,-0.59,-1.02,1.80,-14.70,9.60,-31.80,29.6
2000/01/01 00:17:26.05,IMU,-76.17,-49.80,-969.24,-2.56,-0.54,1.70,-14.55,9.75,-30.90,29.6
2000/01/01 00:17:26.15,IMU,-74.22,-37.11,-968.26,1.28,-1.45,2.79,-14.70,11.40,-30.75,29.3
2000/01/01 00:17:26.25,IMU,-62.50,-49.32,-957.52,-0.58,-2.08,0.83,-15.75,9.60,-30.75,29.2
2000/01/01 00:17:26.36,IMU,-53.71,-40.53,-967.77,-1.61,-0.15,0.60,-15.15,11.85,-30.30,29.5
2000/01/01 00:17:26.46,IMU,-62.50,-39.55,-970.21,-1.18,-2.84,-1.27,-15.15,10.65,-30.00,29.6
2000/01/01 00:17:26.56,IMU,-64.94,-50.78,-967.77,-0.84,-0.72,-1.27,-15.75,11.10,-31.80,29.8
2000/01/01 00:17:26.66,IMU,-54.69,-45.90,-971.19,-0.74,-1.34,-2.05,-15.60,10.50,-31.20,29.6
2000/01/01 00:17:26.76,IMU,-65.92,-39.06,-967.77,0.50,1.21,0.37,-14.40,11.10,-30.75,29.6
2000/01/01 00:17:26.86,IMU,-66.89,-58.11,-971.19,0.16,-1.89,-0.37,-15.45,9.15,-31.35,29.6
2000/01/01 00:17:26.96,IMU,-74.71,-47.36,-968.75,-2.54,-0.53,3.69,-15.60,10.80,-31.65,29.6
2000/01/01 00:17:27.06,IMU,-70.80,-35.16,-962.40,-1.31,-1.49,0.44,-14.40,9.60,-31.35,29.6
2000/01/01 00:17:27.16,IMU,-72.75,-30.27,-974.12,-1.34,-1.69,-1.14,-15.15,10.65,-31.80,29.4
2000/01/01 00:17:27.26,IMU,-65.43,-45.41,-975.59,-0.62,0.85,2.08,-14.40,10.35,-32.85,29.6
2000/01/01 00:17:27.36,IMU,-72.27,-38.09,-967.77,-0.43,-1.16,-0.70,-16.35,10.05,-30.60,29.6
2000/01/01 00:17:27.46,IMU,-70.80,-49.32,-972.66,0.97,-3.03,1.85,-15.75,9.90,-31.35,29.2
2000/01/01 00:17:27.56,IMU,-72.27,-47.85,-970.70,-0.80,-0.02,-0.66,-14.70,11.10,-31.05,29.6
2000/01/01 00:17:27.66,IMU,-68.36,-32.23,-981.45,-0.16,-1.77,1.63,-14.55,11.25,-31.65,29.6
2000/01/01 00:17:27.77,IMU,-53.22,-40.53,-974.61,1.21,0.54,0.72,-15.15,9.15,-30.75,29.5
2000/01/01 00:17:27.87,IMU,-76.66,-45.41,-965.82,-1.24,-2.34,1.09,-13.95,10.65,-32.10,29.6
2000/01/01 00:17:27.97,IMU,-63.96,-42.48,-969.73,-1.12,1.22,3.28,-14.55,10.05,-30.60,29.6
2000/01/01 00:17:28.07,IMU,-62.01,-39.06,-959.47,-1.08,-1.27,2.45,-14.85,10.05,-31.20,29.4
2000/01/01 00:17:28.17,IMU,-59.08,-52.25,-956.05,-1.21,0.14,-0.20,-15.60,9.75,-33.30,29.6
2000/01/01 00:17:28.27,IMU,-71.78,-38.09,-969.73,-1.61,-1.94,-0.72,-14.70,10.35,-30.30,29.5
2000/01/01 00:17:28.37,IMU,-62.01,-44.43,-963.87,-0.41,0.34,-1.98,-15.60,11.25,-30.15,29.6
2000/01/01 00:17:28.47,IMU,-60.55,-41.50,-979.98,-0.25,-0.46,0.57,-16.05,10.05,-31.20,29.5
2000/01/01 00:17:28.57,IMU,-56.15,-48.83,-964.36,-0.16,0.28,0.12,-15.45,10.65,-31.80,29.6
2000/01/01 00:17:28.67,IMU,-62.01,-42.97,-953.13,-1.11,0.20,-3.94,-14.85,9.75,-31.20,29.5
2000/01/01 00:17:28.77,IMU,-67.87,-53.71,-971.19,-0.56,1.08,-0.79,-15.30,12.00,-31.20,29.6
2000/01/01 00:17:28.87,IMU,-67.38,-34.67,-965.33,-0.21,1.17,-0.15,-16.35,9.00,-30.90,29.4
2000/01/01 00:17:28.97,IMU,-71.29,-60.55,-971.19,-0.79,2.53,0.08,-16.50,10.35,-31.35,29.6
2000/01/01 00:17:29.07,IMU,-56.64,-39.06,-968.75,-1.12,-0.82,3.85,-15.15,11.10,-32.10,29.6
2000/01/01 00:17:29.17,IMU,-74.71,-42.48,-968.26,-1.11,-0.08,-0.27,-15.45,10.65,-31.35,29.8
2000/01/01 00:17:29.28,IMU,-60.06,-35.64,-970.70,-2.73,0.24,0.76,-15.30,10.05,-31.20,29.8
2000/01/01 00:17:29.38,IMU,-57.62,-51.76,-964.36,0.55,0.37,-1.97,-14.70,9.60,-30.00,29.4
2000/01/01 00:17:29.48,IMU,-63.96,-51.27,-985.35,0.04,-0.51,2.24,-15.15,10.35,-31.80,29.4
2000/01/01 00:17:29.58,IMU,-65.92,-44.43,-974.61,-0.47,-0.26,-1.16,-13.05,10.05,-30.90,29.6
2000/01/01 00:17:29.68,IMU,-69.34,-48.83,-976.56,-0.68,-1.28,3.29,-15.15,11.40,-30.30,29.5
2000/01/01 00:17:29.78,IMU,-68.36,-39.55,-966.31,-1.45,-0.45,2.21,-15.60,10.50,-32.25,29.6
2000/01/01 00:17:29.88,IMU,-90.33,-44.43,-972.66,1.76,-0.48,1.11,-16.20,10.65,-30.30,29.6
2000/01/01 00:17:29.98,IMU,-60.55,-53.22,-958.98,-0.66,1.40,-2.42,-15.75,11.85,-32.10,29.6
2000/01/01 00:17:30.08,IMU,-76.66,-40.53,-974.61,0.03,-0.46,-0.77,-15.15,10.35,-31.80,29.8
2000/01/01 00:17:30.18,IMU,-64.94,-38.57,-978.52,-2.40,-0.14,1.70,-15.30,10.50,-31.65,29.6
2000/01/01 00:17:30.28,IMU,-70.80,-40.53,-968.75,-0.18,0.13,2.15,-15.15,9.60,-30.75,29.6
2000/01/01 00:17:30.38,IMU,-80.57,-53.71,-986.33,-1.61,0.30,0.67,-14.40,11.10,-30.30,29.6
2000/01/01 00:17:30.48,IMU,-65.43,-45.90,-963.38,-1.63,-0.81,0.41,-15.30,10.80,-31.20,29.5
2000/01/01 00:17:30.58,IMU,-61.52,-42.97,-981.93,-1.85,-0.07,0.79,-16.05,11.25,-30.90,29.6
2000/01/01 00:17:30.69,IMU,-64.45,-57.62,-979.00,-0.29,2.05,0.02,-18.75,10.35,-28.65,29.6
2000/01/01 00:17:30.79,IMU,-59.57,-40.04,-974.12,0.23,-1.59,0.77,-14.70,11.40,-30.30,29.3
2000/01/01 00:17:30.89,IMU,-62.99,-53.22,-988.28,1.05,1.15,0.63,-14.40,9.60,-30.75,29.6
2000/01/01 00:17:30.99,IMU,-73.73,-44.92,-968.75,-2.27,-2.21,1.47,-14.40,10.65,-31.05,29.6
2000/01/01 00:17:31.09,IMU,-62.01,-37.11,-967.29,-1.73,-1.28,1.09,-15.75,10.65,-30.30,29.8
2000/01/01 00:17:31.19,IMU,-62.99,-36.62,-966.80,-0.79,-2.25,1.73,-16.05,11.25,-31.95,29.3
2000/01/01 00:17:31.29,IMU,-60.55,-55.66,-972.66,-0.85,-2.00,-2.71,-15.15,11.10,-31.80,29.4
2000/01/01 00:17:31.39,IMU,-65.92,-36.13,-963.38,-1.02,1.24,1.13,-14.40,11.40,-31.35,29.5
2000/01/01 00:17:31.49,IMU,-67.38,-42.97,-976.56,-1.54,0.15,-1.21,-15.60,10.80,-31.20,29.8
2000/01/01 00:17:31.59,IMU,-64.94,-52.25,-968.26,-1.71,-0.79,1.08,-16.05,11.55,-31.20,29.4
2000/01/01 00:17:31.69,IMU,-70.31,-40.04,-960.45,-0.50,0.27,-1.25,-19.05,8.40,-25.80,29.6
2000/01/01 00:17:31.79,IMU,-68.85,-41.02,-977.54,-2.39,-0.08,0.60,-14.85,10.50,-31.20,29.5
2000/01/01 00:17:31.89,IMU,-76.66,-50.29,-964.84,0.01,1.11,-1.08,-15.15,11.85,-29.70,29.6
2000/01/01 00:17:31.99,IMU,-70.31,-46.39,-965.33,-3.00,0.76,0.10,-13.80,10.50,-29.85,29.6
2000/01/01 00:17:32.09,IMU,-64.45,-41.02,-971.19,0.19,0.63,-0.44,-14.85,9.00,-30.60,29.6
2000/01/01 00:17:32.20,IMU,-68.85,-53.71,-962.89,0.04,0.14,0.10,-15.30,11.25,-32.25,29.6
2000/01/01 00:17:32.30,IMU,-65.92,-53.22,-971.19,-1.66,-1.37,-1.90,-15.15,9.60,-31.05,29.4
2000/01/01 00:17:33.89,IMU,-75.20,-50.78,-972.66,-1.37,-0.08,0.76,-14.70,10.35,-31.05,29.6
2000/01/01 00:17:33.99,IMU,-73.73,-53.71,-977.54,-1.25,-2.58,-1.71,-15.60,11.25,-32.25,29.6
2000/01/01 00:17:34.09,IMU,-62.99,-49.80,-960.94,-1.23,-1.52,-1.35,-14.70,10.35,-30.75,29.6
2000/01/01 00:17:34.19,IMU,-72.75,-62.50,-975.59,0.02,0.54,-0.64,-15.45,9.90,-31.35,29.6
2000/01/01 00:17:34.29,IMU,-67.38,-58.11,-963.87,-0.95,-0.94,-1.80,-15.15,10.65,-31.05,29.6
2000/01/01 00:17:34.39,IMU,-68.85,-33.20,-969.73,-0.25,-0.62,0.22,-15.45,9.90,-32.85,29.6
2000/01/01 00:17:34.49,IMU,-62.01,-47.85,-967.29,0.56,-2.51,1.02,-15.15,9.15,-31.05,29.7
2000/01/01 00:17:34.59,IMU,-67.87,-45.90,-967.77,-1.21,-0.34,-0.05,-15.45,12.15,-31.35,29.6
2000/01/01 00:17:34.69,IMU,-75.20,-41.50,-970.70,0.53,0.64,-1.28,-15.30,11.25,-30.90,29.5
2000/01/01 00:17:34.79,IMU,-67.38,-45.90,-966.31,-1.94,-0.02,1.18,-15.45,10.65,-30.00,29.5
2000/01/01 00:17:34.90,IMU,-70.31,-45.90,-969.24,-1.96,0.65,-0.11,-13.95,9.15,-30.00,29.7
2000/01/01 00:17:35.00,IMU,-72.27,-47.36,-982.91,0.59,-0.61,-2.98,-15.15,10.35,-31.05,29.5
2000/01/01 00:17:35.10,IMU,-58.59,-43.95,-962.40,0.49,-1.29,0.23,-15.15,9.90,-31.35,29.4
2000/01/01 00:17:35.20,IMU,-71.29,-41.50,-971.68,-0.46,0.43,-0.92,-15.30,9.75,-31.95,29.6
2000/01/01 00:17:35.30,IMU,-54.69,-46.39,-958.50,-0.47,0.05,-0.50,-16.35,9.30,-31.20,29.6
2000/01/01 00:17:35.40,IMU,-56.64,-45.41,-974.12,-1.95,0.37,-0.32,-16.05,10.05,-32.25,29.5
2000/01/01 00:17:35.50,IMU,-62.01,-33.69,-971.19,0.04,0.57,0.76,-16.20,9.90,-31.35,29.4
2000/01/01 00:17:35.60,IMU,-52.25,-48.83,-967.77,-1.15,0.05,-0.05,-15.30,10.80,-30.60,29.5
2000/01/01 00:17:35.70,IMU,-62.99,-43.46,-966.31,-0.50,-1.37,0.90,-14.25,13.05,-30.90,29.2
2000/01/01 00:17:35.80,IMU,-67.38,-52.73,-969.24,-1.49,-0.03,2.70,-15.15,9.60,-31.80,29.6
2000/01/01 00:17:35.90,IMU,-73.24,-54.69,-967.29,-1.12,0.55,0.68,-14.70,10.35,-30.30,29.5
2000/01/01 00:17:36.00,IMU,-64.45,-36.62,-978.03,0.19,0.48,-3.24,-15.30,9.30,-30.15,29.6
2000/01/01 00:17:36.10,IMU,-74.71,-32.23,-975.10,-2.44,-2.59,-3.14,-14.85,11.55,-30.15,29.6
2000/01/01 00:17:36.20,IMU,-64.45,-44.92,-966.80,-2.27,0.32,0.82,-15.45,11.85,-31.05,29.6
2000/01/01 00:17:36.31,IMU,-57.62,-37.11,-971.68,-2.08,-1.63,-2.92,-15.30,9.30,-31.95,29.6
2000/01/01 00:17:36.41,IMU,-62.99,-47.85,-964.36,0.19,0.24,1.23,-15.45,8.85,-32.10,29.5
2000/01/01 00:17:36.51,IMU,-59.08,-40.04,-968.26,-3.12,-1.27,-0.60,-16.05,9.00,-30.60,29.5
2000/01/01 00:17:36.61,IMU,-58.11,-47.85,-969.24,-0.55,1.63,-2.66,-16.05,9.75,-29.85,29.3
2000/01/01 00:17:36.71,IMU,-72.27,-43.95,-966.31,0.80,-1.83,0.37,-16.35,10.05,-31.65,29.5
2000/01/01 00:17:36.81,IMU,-69.82,-38.57,-964.36,-1.21,-0.27,4.00,-16.20,11.40,-30.30,29.6
2000/01/01 00:17:36.91,IMU,-83.98,-39.55,-967.29,1.09,-2.34,0.57,-13.50,10.50,-29.85,29.5
2000/01/01 00:17:37.01,IMU,-62.50,-49.80,-959.47,1.06,-1.85,-0.14,-14.70,10.65,-32.55,29.6
2000/01/01 00:17:37.11,IMU,-66.89,-48.83,-977.05,-1.25,1.98,1.28,-16.20,10.35,-30.75,29.6
2000/01/01 00:17:37.21,IMU,-79.10,-34.67,-963.38,-0.89,-0.31,-0.68,-15.30,9.75,-30.60,29.3
2000/01/01 00:17:37.31,IMU,-65.43,-56.15,-963.87,-0.79,-2.50,2.24,-16.05,11.55,-30.90,29.7
2000/01/01 00:17:37.41,IMU,-78.61,-45.41,-973.14,0.68,-0.19,-0.99,-15.60,9.75,-31.20,29.5
2000/01/01 00:17:37.51,IMU,-53.71,-44.92,-974.61,-0.76,0.44,0.56,-13.95,11.40,-30.75,29.5
2000/01/01 00:17:37.61,IMU,-68.36,-42.97,-970.21,-1.47,0.63,0.51,-15.30,9.75,-31.65,29.6
2000/01/01 00:17:37.71,IMU,-60.55,-49.32,-965.33,-2.40,1.18,-2.47,-15.45,10.65,-30.30,29.5
2000/01/01 00:17:37.82,IMU,-61.52,-39.06,-975.59,-1.70,0.84,0.85,-15.30,10.05,-32.70,29.3
2000/01/01 00:17:37.92,IMU,-72.27,-44.92,-967.77,-1.03,0.90,0.84,-15.30,9.75,-31.20,29.6
2000/01/01 00:17:38.02,IMU,-70.80,-38.09,-967.77,0.29,-0.62,1.25,-16.35,9.30,-32.70,29.4
2000/01/01 00:17:38.12,IMU,-73.73,-56.15,-971.68,-1.42,-1.13,-0.08,-15.60,9.75,-30.90,29.5
2000/01/01 00:17:38.22,IMU,-69.82,-45.41,-974.12,0.20,-0.34,-2.72,-14.55,10.50,-30.90,29.4
2000/01/01 00:17:38.32,IMU,-76.66,-33.20,-971.68,0.37,0.33,0.31,-16.05,11.55,-31.20,29.4
2000/01/01 00:17:38.42,IMU,-64.94,-45.41,-976.07,0.30,-1.99,-0.47,-15.60,10.50,-31.65,29.5
2000/01/01 00:17:38.52,IMU,-67.38,-45.90,-972.17,-2.00,0.83,-1.85,-14.55,11.25,-30.90,29.4
2000/01/01 00:17:38.62,IMU,-65.43,-47.36,-960.94,-1.95,1.66,-1.19,-15.45,11.10,-30.00,29.4
2000/01/01 00:17:38.72,IMU,-72.75,-45.90,-970.21,0.05,1.40,0.76,-15.15,9.60,-31.80,29.6
2000/01/01 00:17:38.82,IMU,-63.96,-37.60,-976.56,0.69,-0.44,1.37,-13.95,10.35,-30.75,29.6
2000/01/01 00:17:38.92,IMU,-69.34,-46.88,-960.45,-2.69,0.11,1.56,-15.60,10.05,-30.90,29.5
2000/01/01 00:17:39.02,IMU,-66.41,-36.62,-970.21,-2.56,0.00,0.93,-17.40,9.30,-29.55,29.4
2000/01/01 00:17:39.12,IMU,-62.50,-29.79,-971.19,-0.02,0.77,0.76,-16.20,10.65,-30.75,29.2
2000/01/01 00:17:39.23,IMU,-58.11,-46.88,-971.68,0.32,1.15,-1.06,-16.05,9.75,-31.20,29.4
2000/01/01 00:17:39.33,IMU,-58.11,-30.27,-942.38,-0.94,-1.14,-1.05,-14.70,10.35,-30.75,29.4
2000/01/01 00:17:39.43,IMU,-59.57,-41.02,-958.50,-1.07,-1.22,3.19,-15.60,8.70,-29.85,29.5
2000/01/01 00:17:39.53,IMU,-62.99,-44.92,-973.63,-1.95,-0.87,2.43,-16.50,9.15,-31.05,29.5
2000/01/01 00:17:39.63,IMU,-71.29,-44.92,-973.14,-0.37,1.54,-1.81,-16.65,9.30,-30.60,29.1
2000/01/01 00:17:39.73,IMU,-49.80,-42.48,-982.42,-0.47,-2.71,-0.92,-15.30,10.05,-30.60,29.6
2000/01/01 00:17:39.83,IMU,-72.27,-47.36,-973.14,-1.42,0.13,0.28,-14.85,10.05,-31.95,29.5
2000/01/01 00:17:39.93,IMU,-62.01,-38.09,-959.47,-1.59,0.08,1.13,-14.55,11.25,-30.60,29.6
2000/01/01 00:17:40.03,IMU,-72.27,-48.34,-972.17,-1.45,-3.22,0.56,-16.50,8.40,-27.60,29.6
2000/01/01 00:17:40.13,IMU,-66.89,-38.09,-970.21,-0.44,-1.26,-0.58,-15.15,11.85,-29.70,29.7
2000/01/01 00:17:40.23,IMU,-64.94,-37.11,-975.59,-0.27,-0.63,-1.66,-15.15,10.50,-31.20,29.4
2000/01/01 00:17:40.33,IMU,-72.27,-41.99,-971.19,-0.41,1.54,2.97,-16.05,10.50,-31.65,29.4
2000/01/01 00:17:40.43,IMU,-69.34,-37.60,-963.38,-0.34,-2.17,0.36,-15.60,9.75,-30.90,29.4
2000/01/01 00:17:40.53,IMU,-65.92,-50.78,-969.73,-1.34,-0.76,-1.42,-15.15,10.35,-31.35,29.1
2000/01/01 00:17:40.63,IMU,-49.80,-44.43,-966.80,-1.34,0.93,-1.06,-15.60,10.80,-30.90,29.5
2000/01/01 00:17:40.74,IMU,-58.11,-41.99,-965.82,-3.13,-2.41,2.95,-15.75,11.85,-31.05,29.1
2000/01/01 00:17:40.84,IMU,-63.48,-43.95,-960.94,-2.24,1.34,1.37,-15.30,9.75,-32.25,29.6
2000/01/01 00:17:40.94,IMU,-62.50,-38.09,-967.77,0.14,2.06,3.41,-14.55,10.50,-30.90,29.4
2000/01/01 00:17:41.05,IMU,-76.66,-52.73,-967.77,-0.42,0.73,2.96,-19.80,10.05,-30.90,29.6
2000/01/01 00:17:41.15,IMU,-79.59,-45.41,-964.36,-0.10,-1.85,-2.14,-14.40,9.15,-30.30,29.6
2000/01/01 00:17:41.25,IMU,-63.96,-46.88,-968.26,-2.18,-1.05,-1.82,-15.75,11.40,-31.35,29.4
2000/01/01 00:17:41.35,IMU,-68.36,-47.36,-961.91,0.87,-0.84,-2.01,-14.85,10.05,-30.90,29.2
2000/01/01 00:17:41.45,IMU,-75.20,-41.99,-957.52,1.63,0.16,0.32,-15.45,9.90,-31.35,29.5
2000/01/01 00:17:41.55,IMU,-65.92,-53.71,-972.17,-0.98,-0.47,-1.93,-16.05,10.80,-30.60,29.5
2000/01/01 00:17:41.65,IMU,-64.94,-48.83,-971.19,-0.03,-2.28,0.93,-15.30,11.25,-31.65,29.5
2000/01/01 00:17:41.75,IMU,-73.24,-55.66,-965.33,-1.43,-0.99,1.93,-14.85,9.30,-30.90,29.5
2000/01/01 00:17:41.85,IMU,-62.01,-50.78,-967.29,1.08,-1.96,-1.52,-15.75,9.15,-32.85,29.4
2000/01/01 00:17:41.95,IMU,-69.82,-51.27,-978.03,-0.64,-0.74,-0.59,-15.60,11.25,-31.65,29.5
2000/01/01 00:17:42.05,IMU,-63.48,-58.59,-969.73,-0.60,0.89,2.81,-16.20,9.60,-32.10,29.5
2000/01/01 00:17:42.15,IMU,-62.01,-22.95,-968.75,0.92,0.73,0.56,-16.20,10.65,-31.80,29.4
2000/01/01 00:17:42.25,IMU,-60.55,-53.22,-973.14,-1.64,-1.15,1.84,-15.30,10.80,-30.90,29.5
2000/01/01 00:17:42.35,IMU,-65.92,-53.22,-969.24,0.18,-1.34,2.30,-15.15,10.35,-31.80,29.3
2000/01/01 00:17:42.46,IMU,-58.11,-46.88,-955.08,-0.46,-0.24,-1.40,-15.60,11.55,-30.15,29.4
2000/01/01 00:17:42.56,IMU,-73.24,-39.06,-965.82,-0.95,0.02,-2.24,-14.70,10.65,-31.35,29.4
2000/01/01 00:17:42.68,IMU,-60.55,-43.95,-963.87,-1.31,0.56,1.66,-15.15,11.10,-31.05,29.5
2000/01/01 00:17:42.78,IMU,-62.01,-44.43,-972.17,0.31,0.11,-1.26,-16.05,10.50,-30.15,29.6
2000/01/01 00:17:42.88,IMU,-70.80,-44.43,-975.10,0.12,1.63,0.53,-16.20,9.90,-31.35,29.3
2000/01/01 00:17:42.98,IMU,-68.85,-43.46,-965.33,-1.90,-0.97,-0.89,-14.85,11.25,-30.15,29.3
2000/01/01 00:17:43.09,IMU,-68.36,-50.78,-964.84,-2.25,1.19,0.08,-17.40,7.95,-28.05,29.4
2000/01/01 00:17:43.19,IMU,-74.71,-44.92,-969.73,-0.53,-2.89,-0.78,-14.70,11.85,-31.05,29.5
2000/01/01 00:17:43.29,IMU,-56.64,-44.92,-969.73,-1.92,0.50,-1.69,-15.30,10.50,-31.20,29.5
2000/01/01 00:17:43.39,IMU,-66.41,-43.46,-978.52,0.05,-1.14,-0.26,-14.55,10.50,-30.60,29.4
2000/01/01 00:17:43.49,IMU,-62.50,-40.04,-961.43,0.20,-2.05,1.69,-14.25,10.80,-30.60,29.5
2000/01/01 00:17:43.60,IMU,-68.85,-46.88,-966.31,-0.27,-3.30,2.23,-15.30,10.05,-31.65,29.5
2000/01/01 00:17:43.70,IMU,-66.41,-44.43,-965.33,-2.14,-0.77,-1.22,-16.05,9.75,-30.60,29.6
2000/01/01 00:17:43.80,IMU,-74.22,-54.69,-983.89,-0.95,-0.71,0.67,-15.45,9.90,-30.30,29.3
2000/01/01 00:17:43.90,IMU,-71.29,-47.85,-970.21,-0.47,-1.65,1.95,-15.30,10.80,-31.65,29.4
2000/01/01 00:17:44.00,IMU,-57.62,-43.46,-974.12,-2.34,-2.38,-0.71,-15.60,10.50,-31.20,29.4
2000/01/01 00:17:44.10,IMU,-63.96,-49.32,-982.91,0.01,0.18,-0.32,-14.40,10.35,-31.80,29.4
2000/01/01 00:17:44.20,IMU,-74.22,-51.76,-965.82,-0.80,2.57,1.79,-13.95,10.35,-30.30,29.4
2000/01/01 00:17:44.30,IMU,-70.31,-44.92,-967.77,-0.02,2.59,-1.21,-15.60,9.75,-30.90,29.3
2000/01/01 00:17:44.40,IMU,-73.73,-49.80,-967.77,-0.82,1.98,-1.02,-14.25,10.50,-31.65,29.3
2000/01/01 00:17:44.50,IMU,-62.01,-35.16,-969.24,-1.10,-0.66,-1.10,-15.30,9.30,-31.65,29.1
2000/01/01 00:17:44.60,IMU,-65.92,-39.06,-961.91,-1.18,-2.50,0.95,-14.70,10.35,-30.75,29.2
2000/01/01 00:17:44.70,IMU,-62.50,-44.92,-963.87,0.49,-1.92,0.86,-15.45,9.90,-31.05,29.4
2000/01/01 00:17:44.80,IMU,-62.99,-45.90,-974.61,-1.08,-0.83,-1.51,-15.75,9.90,-30.00,29.4
2000/01/01 00:17:44.90,IMU,-64.94,-36.62,-969.73,-0.84,-0.82,0.66,-13.80,9.30,-31.20,29.5
2000/01/01 00:17:45.01,IMU,-68.85,-42.97,-977.54,-0.93,-0.04,1.37,-15.45,10.35,-30.30,29.4
2000/01/01 00:17:45.11,IMU,-68.36,-40.04,-970.70,-0.05,-0.69,-2.72,-16.05,9.75,-30.90,29.1
2000/01/01 00:17:45.21,IMU,-65.43,-47.36,-976.07,0.60,1.40,1.50,-15.15,11.10,-32.55,29.4
2000/01/01 00:17:45.31,IMU,-72.27,-51.76,-966.80,-0.11,-1.14,-1.90,-15.75,10.35,-31.80,29.5
2000/01/01 00:17:45.41,IMU,-83.50,-44.92,-976.07,-2.18,-2.35,-1.02,-15.15,10.65,-31.80,29.4
2000/01/01 00:17:45.51,IMU,-66.41,-40.53,-970.21,-0.60,-1.31,2.51,-16.65,10.50,-30.90,29.1
2000/01/01 00:17:45.61,IMU,-58.59,-45.41,-970.70,-1.07,-1.66,-0.43,-15.45,10.65,-32.85,29.4
2000/01/01 00:17:45.71,IMU,-62.99,-49.32,-975.59,1.29,0.88,3.30,-14.70,11.85,-31.05,29.6
2000/01/01 00:17:45.81,IMU,-65.43,-39.06,-970.70,-0.66,-0.31,-0.74,-13.80,10.80,-31.20,29.3
2000/01/01 00:17:45.91,IMU,-75.20,-41.02,-970.21,-1.60,0.63,2.79,-14.55,10.05,-32.25,29.6
2000/01/01 00:17:46.01,IMU,-66.41,-41.50,-968.75,-1.03,-0.52,1.59,-14.85,10.80,-32.25,29.3
2000/01/01 00:17:46.11,IMU,-63.48,-53.22,-957.52,-1.12,2.73,1.21,-16.20,10.65,-31.35,29.1
2000/01/01 00:17:46.21,IMU,-68.85,-40.53,-974.61,-1.93,-3.92,-0.22,-14.85,10.50,-32.25,29.1
2000/01/01 00:17:46.31,IMU,-63.48,-45.90,-967.29,-0.16,-0.38,0.31,-14.85,10.50,-31.65,29.4
2000/01/01 00:17:46.41,IMU,-66.41,-51.76,-964.36,1.04,1.12,-0.67,-15.15,10.35,-31.35,29.4
2000/01/01 00:17:46.52,IMU,-71.78,-41.50,-965.82,-1.99,0.47,0.27,-15.30,10.05,-31.95,29.4
2000/01/01 00:17:46.62,IMU,-55.18,-61.04,-973.14,1.03,-2.09,-1.76,-14.85,9.30,-33.30,29.1
2000/01/01 00:17:46.72,IMU,-63.48,-49.32,-968.26,0.99,-0.63,-1.98,-16.35,9.30,-31.65,29.4
2000/01/01 00:17:46.82,IMU,-59.08,-47.36,-969.24,1.05,-1.00,1.50,-14.85,10.05,-31.95,29.5
2000/01/01 00:17:46.92,IMU,-64.94,-54.69,-962.40,-1.08,-1.85,1.13,-16.20,10.65,-31.80,29.5
2000/01/01 00:17:47.02,IMU,-70.80,-49.32,-976.56,-0.15,0.44,-0.60,-16.35,10.80,-30.60,29.5
2000/01/01 00:17:47.12,IMU,-69.34,-34.67,-967.77,-0.53,-2.49,-2.76,-15.60,10.50,-31.95,29.2
2000/01/01 00:17:47.22,IMU,-62.50,-52.25,-965.33,-1.10,-1.43,0.80,-13.80,11.55,-31.65,29.5
2000/01/01 00:17:47.32,IMU,-73.73,-47.36,-972.66,-0.56,-1.80,-4.11,-14.55,10.50,-33.00,29.4
2000/01/01 00:17:47.42,IMU,-60.55,-53.71,-972.17,-0.59,-0.82,-2.51,-16.50,9.60,-31.80,29.4
2000/01/01 00:17:47.52,IMU,-64.94,-55.66,-962.89,-1.28,-2.27,2.17,-15.45,11.10,-31.80,29.4
2000/01/01 00:17:47.62,IMU,-69.82,-36.62,-976.07,-1.27,-2.73,1.22,-16.35,9.75,-31.95,29.5
2000/01/01 00:17:47.72,IMU,-60.55,-42.97,-967.29,-0.74,-1.91,-2.46,-13.80,10.50,-31.65,29.5
2000/01/01 00:17:47.82,IMU,-60.55,-43.95,-960.45,-2.02,-0.05,0.06,-14.70,10.35,-30.30,29.5
2000/01/01 00:17:47.92,IMU,-63.48,-46.88,-967.29,-0.40,0.15,1.20,-14.25,9.75,-31.95,29.4
2000/01/01 00:17:48.03,IMU,-53.71,-45.90,-974.12,-0.92,-0.18,-4.03,-15.15,10.65,-32.55,29.6
2000/01/01 00:17:48.13,IMU,-70.80,-41.02,-966.80,-0.05,-1.34,3.10,-15.15,11.10,-32.55,29.4
2000/01/01 00:17:48.23,IMU,-71.29,-47.85,-980.96,-1.40,0.05,0.24,-14.55,9.30,-32.25,29.5
2000/01/01 00:17:48.33,IMU,-78.61,-43.95,-966.31,-0.10,-2.58,1.89,-15.15,9.90,-30.75,29.5
2000/01/01 00:17:48.43,IMU,-65.43,-47.85,-972.17,-0.92,-1.64,1.39,-15.15,9.90,-31.05,29.4
2000/01/01 00:17:48.53,IMU,-83.01,-44.92,-967.29,-1.92,-2.75,1.93,-15.60,9.30,-32.70,29.3
2000/01/01 00:17:48.63,IMU,-48.83,-45.41,-970.21,-1.47,0.02,0.05,-14.85,8.70,-31.20,29.4
2000/01/01 00:17:48.73,IMU,-71.78,-48.34,-972.66,-0.60,-0.12,2.70,-15.15,12.90,-30.75,29.7
2000/01/01 00:17:48.83,IMU,-66.89,-49.80,-981.93,0.15,-0.14,-1.99,-14.25,10.05,-30.60,29.4
2000/01/01 00:17:48.93,IMU,-72.75,-49.32,-978.52,-0.44,0.30,-1.43,-15.75,8.40,-31.35,29.1
2000/01/01 00:17:49.03,IMU,-72.75,-43.95,-970.70,-2.08,-0.96,-0.31,-15.75,10.35,-30.00,29.4
2000/01/01 00:17:49.13,IMU,-62.99,-51.76,-965.33,-1.27,-2.04,0.05,-16.35,9.75,-31.20,29.6
2000/01/01 00:17:49.23,IMU,-67.87,-49.32,-970.70,0.26,-0.64,1.49,-15.30,9.75,-30.90,29.5
2000/01/01 00:17:49.33,IMU,-58.11,-52.25,-968.75,-1.26,-0.15,3.02,-15.15,9.90,-32.10,29.3
2000/01/01 00:17:49.44,IMU,-71.29,-35.16,-976.07,-0.47,-0.29,-0.66,-14.55,10.05,-32.25,29.5
2000/01/01 00:17:49.54,IMU,-60.55,-29.79,-959.47,-1.59,-0.06,-0.38,-14.40,10.65,-32.10,29.5
2000/01/01 00:17:49.64,IMU,-67.38,-50.78,-977.54,0.21,-0.22,-1.64,-15.75,9.15,-31.80,29.2
2000/01/01 00:17:49.74,IMU,-57.13,-45.90,-966.80,-0.63,-0.24,1.44,-14.70,10.35,-32.10,29.3
2000/01/01 00:17:49.84,IMU,-62.01,-55.66,-977.05,1.14,-3.80,-2.65,-16.50,11.40,-32.55,29.4
2000/01/01 00:17:49.94,IMU,-71.29,-49.80,-971.19,-1.73,-0.47,2.76,-14.25,10.50,-31.95,29.2
2000/01/01 00:17:50.04,IMU,-69.34,-46.39,-970.70,0.88,-2.05,1.18,-14.40,11.10,-31.35,29.5
2000/01/01 00:17:50.14,IMU,-71.78,-49.32,-971.68,-1.31,0.95,0.73,-15.45,11.10,-31.35,29.5
2000/01/01 00:17:50.24,IMU,-65.92,-41.99,-969.73,-1.95,0.26,-0.61,-16.65,8.25,-29.10,29.1
2000/01/01 00:17:50.34,IMU,-75.20,-45.90,-973.14,-1.22,0.81,-2.34,-15.60,9.75,-30.90,29.4
2000/01/01 00:17:50.44,IMU,-68.36,-59.57,-975.10,-1.21,-2.45,2.09,-14.70,9.90,-31.35,29.6
2000/01/01 00:17:50.54,IMU,-72.75,-51.76,-970.21,0.93,-0.19,2.28,-15.15,10.65,-30.30,29.4
2000/01/01 00:17:50.64,IMU,-71.78,-42.48,-975.10,-0.57,0.85,2.34,-14.70,9.15,-32.85,29.6
2000/01/01 00:17:50.74,IMU,-68.85,-42.97,-984.38,-2.19,0.38,-1.41,-14.55,8.70,-30.60,29.0
2000/01/01 00:17:50.84,IMU,-76.66,-44.92,-968.26,0.92,0.10,0.79,-14.55,10.80,-31.95,29.4
2000/01/01 00:17:50.95,IMU,-74.71,-47.36,-961.43,-1.55,-0.63,-2.38,-16.35,11.55,-30.15,29.5
2000/01/01 00:17:51.05,IMU,-59.08,-46.39,-975.59,0.18,-0.66,1.16,-14.85,11.55,-31.20,29.4
2000/01/01 00:17:51.15,IMU,-65.92,-59.57,-975.59,0.12,0.31,2.98,-14.70,9.90,-32.10,29.4
2000/01/01 00:17:51.25,IMU,-78.61,-38.09,-975.59,-1.36,-1.11,2.15,-18.75,8.40,-27.60,29.4
2000/01/01 00:17:51.35,IMU,-71.78,-55.66,-963.38,-0.73,-0.51,-1.83,-14.70,9.60,-33.60,29.4
2000/01/01 00:17:51.45,IMU,-56.64,-44.43,-963.87,0.01,0.65,0.15,-15.60,10.05,-31.20,29.1
2000/01/01 00:17:51.55,IMU,-69.82,-40.04,-970.21,-1.50,-0.07,0.78,-15.60,10.05,-30.90,29.3
2000/01/01 00:17:51.66,IMU,-54.69,-43.95,-960.94,-1.37,-0.43,-1.53,-16.50,9.90,-32.10,29.1
2000/01/01 00:17:51.76,IMU,-70.31,-38.57,-968.75,0.78,-1.56,2.48,-15.15,9.90,-30.75,29.4
2000/01/01 00:17:51.86,IMU,-65.43,-43.46,-976.07,-0.75,0.96,1.24,-15.30,11.55,-31.20,29.6
2000/01/01 00:17:51.96,IMU,-64.45,-56.64,-955.08,-1.25,-1.02,0.97,-15.15,9.60,-31.35,29.3
2000/01/01 00:17:52.06,IMU,-71.29,-44.92,-975.59,-1.24,-2.40,-0.07,-15.75,10.65,-31.35,29.4
2000/01/01 00:17:52.16,IMU,-70.80,-42.48,-963.87,-0.17,-1.05,-1.62,-15.45,9.90,-32.55,29.2
2000/01/01 00:17:52.26,IMU,-73.24,-50.29,-968.26,-1.43,-0.78,-2.65,-15.15,10.35,-31.05,29.4
2000/01/01 00:17:52.36,IMU,-74.71,-46.39,-970.70,-0.44,-0.11,-1.05,-15.15,11.85,-31.80,29.5
2000/01/01 00:17:52.46,IMU,-66.41,-41.02,-964.84,-1.00,-2.01,-1.70,-15.15,9.15,-31.35,29.3
2000/01/01 00:17:52.56,IMU,-79.10,-40.53,-979.98,-1.87,-0.21,0.41,-15.75,11.10,-31.80,29.5
2000/01/01 00:17:52.66,IMU,-58.11,-47.85,-970.70,0.31,-0.09,-1.07,-15.15,10.65,-31.35,29.3
2000/01/01 00:17:52.76,IMU,-58.59,-52.25,-971.19,-1.99,-3.76,-1.74,-14.70,11.40,-32.55,29.3
2000/01/01 00:17:52.86,IMU,-61.52,-48.34,-985.35,1.01,-0.15,1.90,-14.85,12.00,-30.60,29.4
2000/01/01 00:17:52.96,IMU,-58.11,-35.16,-968.26,-2.10,-1.27,1.28,-15.45,11.10,-31.80,29.5
2000/01/01 00:17:53.06,IMU,-61.52,-45.41,-981.45,-1.25,0.57,0.54,-15.75,9.90,-31.35,29.1
2000/01/01 00:17:53.17,IMU,-64.94,-35.64,-961.91,1.08,-2.29,2.34,-15.60,10.05,-31.65,29.4
2000/01/01 00:17:53.27,IMU,-69.34,-52.73,-969.73,0.60,-2.21,-2.23,-14.85,10.05,-31.20,29.4
2000/01/01 00:17:53.37,IMU,-69.34,-42.48,-977.05,-0.50,-3.02,2.20,-15.75,9.90,-31.80,29.4
2000/01/01 00:17:53.47,IMU,-61.52,-57.13,-971.68,-2.51,-1.95,-2.62,-15.15,10.65,-31.05,29.4
2000/01/01 00:17:53.57,IMU,-76.66,-48.34,-977.54,-2.72,-0.87,1.01,-16.05,9.30,-32.70,29.3
2000/01/01 00:17:53.67,IMU,-69.34,-29.30,-968.26,-0.40,-0.73,-0.36,-17.40,10.05,-31.95,29.6
2000/01/01 00:17:53.77,IMU,-74.71,-43.95,-986.33,-0.84,-0.19,4.08,-15.15,9.60,-32.10,29.6
2000/01/01 00:17:53.87,IMU,-63.96,-41.50,-979.98,-3.37,-0.24,1.76,-14.55,9.00,-30.60,29.2
2000/01/01 00:17:53.97,IMU,-67.87,-38.57,-954.59,-1.05,-1.78,-0.33,-16.20,9.90,-31.05,29.4
2000/01/01 00:17:54.07,IMU,-79.59,-36.62,-975.10,0.18,0.19,3.62,-15.60,10.05,-30.15,29.5
2000/01/01 00:17:54.17,IMU,-60.06,-44.43,-974.12,-1.87,1.08,0.80,-14.55,9.75,-31.20,29.1
2000/01/01 00:17:54.27,IMU,-66.41,-50.29,-966.31,-0.37,-0.94,-0.87,-15.15,9.60,-31.05,29.4
2000/01/01 00:17:54.37,IMU,-68.85,-41.99,-980.47,-0.84,1.66,2.03,-16.20,10.65,-31.35,29.2
2000/01/01 00:17:54.47,IMU,-66.41,-37.60,-974.61,-0.27,-2.34,-1.80,-15.75,10.65,-32.55,29.4
2000/01/01 00:17:54.58,IMU,-55.18,-50.29,-971.68,-0.69,-2.86,-0.27,-15.45,10.65,-31.35,29.6
2000/01/01 00:17:54.68,IMU,-71.29,-46.39,-968.75,0.41,-1.19,-1.27,-15.30,8.70,-31.95,29.5
2000/01/01 00:17:54.78,IMU,-67.38,-44.43,-971.68,-1.06,0.78,2.89,-15.75,11.40,-31.35,29.1
2000/01/01 00:17:54.88,IMU,-73.73,-44.43,-969.24,-0.21,-0.38,-1.90,-15.30,10.80,-31.95,29.1
2000/01/01 00:17:54.98,IMU,-61.52,-44.43,-971.68,-2.37,0.08,-2.44,-14.70,9.90,-31.35,29.2
2000/01/01 00:17:55.08,IMU,-70.80,-41.02,-982.91,-1.45,-0.52,-1.02,-15.30,10.80,-31.95,29.3
2000/01/01 00:17:55.18,IMU,-70.80,-44.43,-977.05,-0.05,-0.92,-0.34,-16.20,10.35,-30.00,29.5
2000/01/01 00:17:55.28,IMU,-62.01,-35.64,-971.68,-2.15,-0.35,-0.23,-15.30,10.80,-32.25,29.1
2000/01/01 00:17:55.38,IMU,-53.71,-47.36,-932.13,-0.77,0.33,1.32,-14.40,10.35,-30.30,29.5
2000/01/01 00:17:55.48,IMU,-52.25,-46.88,-959.96,-1.89,-0.40,-0.47,-16.50,11.40,-31.05,29.2
2000/01/01 00:17:55.58,IMU,-71.78,-37.11,-965.82,-0.67,-0.40,0.89,-15.15,9.60,-32.10,29.3
2000/01/01 00:17:55.68,IMU,-69.34,-60.06,-966.80,0.60,-0.72,2.11,-15.15,8.40,-31.35,29.4
2000/01/01 00:17:55.78,IMU,-69.82,-46.88,-968.26,0.82,-2.08,0.32,-14.70,11.40,-30.30,29.4
2000/01/01 00:17:55.88,IMU,-76.66,-45.41,-961.43,-0.25,-2.88,-0.03,-15.30,11.25,-30.90,29.1
2000/01/01 00:17:55.98,IMU,-66.41,-43.46,-958.01,-1.08,1.73,-0.24,-15.60,9.00,-31.65,29.1
2000/01/01 00:17:56.09,IMU,-70.80,-49.32,-974.12,-1.11,-2.04,1.55,-15.30,11.55,-32.70,29.2
2000/01/01 00:17:56.19,IMU,-67.87,-41.99,-972.66,-0.84,0.98,1.60,-15.75,9.90,-31.80,29.3
2000/01/01 00:17:56.29,IMU,-76.17,-50.78,-968.75,0.02,-0.85,-1.16,-15.45,11.40,-31.80,29.3
2000/01/01 00:17:56.39,IMU,-69.82,-54.69,-978.52,-0.53,1.98,3.25,-15.75,11.40,-31.80,29.5
2000/01/01 00:17:56.49,IMU,-64.45,-34.18,-975.10,-1.02,-0.63,-1.10,-16.20,11.10,-32.10,29.5
2000/01/01 00:17:56.59,IMU,-68.85,-44.92,-961.91,-0.24,0.75,1.69,-15.45,11.40,-31.35,29.6
2000/01/01 00:17:56.69,IMU,-77.15,-44.92,-964.36,-1.95,0.44,-1.44,-14.70,9.60,-31.80,29.6
2000/01/01 00:17:56.79,IMU,-71.78,-41.50,-966.80,-1.31,-0.82,0.40,-13.80,10.05,-32.25,29.4
2000/01/01 00:17:56.89,IMU,-62.99,-47.36,-967.77,0.42,1.08,1.37,-15.75,11.10,-31.80,29.1
2000/01/01 00:17:56.99,IMU,-66.41,-39.55,-962.40,0.90,-1.14,1.26,-15.15,11.10,-31.05,29.4
2000/01/01 00:17:57.09,IMU,-65.92,-41.50,-976.56,0.90,-0.94,-1.10,-15.75,9.90,-31.35,29.4
2000/01/01 00:17:57.19,IMU,-64.45,-43.46,-958.01,-1.14,-2.56,-0.30,-16.50,8.85,-31.05,29.4
2000/01/01 00:17:57.29,IMU,-66.41,-36.62,-967.29,0.18,0.85,-2.54,-16.35,11.55,-30.60,29.1
2000/01/01 00:17:57.39,IMU,-69.34,-36.13,-972.66,0.17,0.05,-2.15,-17.40,10.50,-27.30,29.0
2000/01/01 00:17:57.50,IMU,-51.76,-24.90,-958.98,0.77,-1.34,-1.85,-15.75,10.35,-30.30,29.5
2000/01/01 00:17:57.60,IMU,-65.92,-43.95,-972.17,-0.56,-0.91,0.76,-14.55,10.05,-31.65,28.8
2000/01/01 00:17:57.70,IMU,-65.43,-45.90,-964.36,-0.16,-1.24,1.63,-14.70,9.90,-31.05,29.4
2000/01/01 00:17:57.80,IMU,-70.80,-34.67,-967.29,-2.12,-1.97,-2.47,-16.05,10.80,-30.90,29.4
2000/01/01 00:17:57.90,IMU,-63.48,-42.97,-971.68,0.54,-1.21,2.86,-15.45,10.35,-31.80,29.5
2000/01/01 00:17:58.00,IMU,-69.82,-43.46,-961.91,-1.11,-0.47,-1.08,-15.15,9.15,-32.10,29.5
2000/01/01 00:17:58.10,IMU,-55.18,-38.57,-972.17,-0.13,0.52,-0.31,-15.45,10.65,-31.05,29.1
2000/01/01 00:17:58.20,IMU,-74.71,-41.99,-969.24,-0.44,0.24,-2.15,-15.30,10.80,-32.25,29.3
2000/01/01 00:17:58.30,IMU,-68.85,-46.39,-974.12,-1.61,0.56,1.18,-15.60,10.80,-30.60,29.4
2000/01/01 00:17:58.40,IMU,-65.92,-41.99,-974.12,0.46,-1.40,0.34,-14.85,9.00,-29.10,29.2
2000/01/01 00:17:58.50,IMU,-67.38,-33.20,-969.24,0.00,-0.61,2.24,-15.15,11.10,-31.05,29.6
2000/01/01 00:17:58.60,IMU,-72.27,-47.36,-973.63,1.37,-0.36,1.37,-14.85,10.50,-32.70,29.4
2000/01/01 00:17:58.70,IMU,-64.45,-43.95,-968.75,-1.56,-0.79,2.38,-15.45,10.65,-31.05,29.4
2000/01/01 00:17:58.81,IMU,-65.43,-54.20,-958.01,-0.35,0.02,1.40,-16.05,10.05,-31.20,29.1
2000/01/01 00:17:58.91,IMU,-73.24,-43.95,-973.63,-2.22,-4.02,0.33,-14.85,9.75,-32.25,29.4
2000/01/01 00:17:59.01,IMU,-66.41,-42.97,-958.01,0.44,-0.63,1.26,-15.75,9.60,-30.75,29.4
2000/01/01 00:17:59.11,IMU,-62.99,-42.48,-973.63,-0.53,-0.26,-0.51,-14.70,11.10,-31.35,29.4
2000/01/01 00:17:59.21,IMU,-69.34,-45.41,-966.31,0.55,-0.42,-1.74,-14.70,10.35,-31.05,29.0
2000/01/01 00:17:59.31,IMU,-61.04,-48.34,-966.31,-1.36,-1.74,-0.73,-15.30,10.50,-31.65,29.4
2000/01/01 00:17:59.41,IMU,-58.59,-42.48,-960.94,-0.10,-0.31,-1.11,-15.45,10.35,-32.55,29.6
2000/01/01 00:17:59.51,IMU,-66.41,-51.27,-965.33,1.66,0.14,-2.08,-14.70,10.65,-32.55,29.6
2000/01/01 00:17:59.61,IMU,-74.71,-45.41,-970.21,1.20,-1.78,1.80,-16.35,10.05,-31.65,29.5
2000/01/01 00:17:59.71,IMU,-60.06,-52.25,-971.68,-1.95,-0.45,-0.08,-14.40,9.90,-31.35,29.5
2000/01/01 00:17:59.81,IMU,-63.96,-38.57,-963.87,-2.33,-1.41,1.67,-15.15,9.90,-31.80,29.3
2000/01/01 00:17:59.91,IMU,-71.29,-41.99,-966.31,-2.06,-1.11,-1.47,-15.75,11.40,-31.80,29.3
2000/01/01 00:18:00.01,IMU,-58.59,-51.27,-964.84,0.30,0.13,1.95,-14.55,10.05,-31.95,29.4
2000/01/01 00:18:00.11,IMU,-71.29,-40.04,-970.21,-1.85,-0.77,1.29,-14.70,10.35,-31.80,29.5
2000/01/01 00:18:00.21,IMU,-70.31,-41.02,-969.73,-1.65,-2.02,0.50,-16.05,10.80,-31.95,29.4
2000/01/01 00:18:00.32,IMU,-63.96,-40.53,-973.63,-0.77,-0.58,-0.66,-15.15,11.10,-31.35,29.3
2000/01/01 00:18:00.42,IMU,-78.12,-46.39,-979.00,-2.34,0.44,2.04,-14.40,11.10,-31.05,29.3
2000/01/01 00:18:00.52,IMU,-67.38,-46.88,-972.66,-1.14,-0.48,-0.47,-15.30,9.30,-31.20,29.5
2000/01/01 00:18:00.62,IMU,-81.05,-43.95,-966.31,-0.20,-1.11,3.66,-14.55,10.05,-31.65,29.3
2000/01/01 00:18:00.72,IMU,-79.59,-52.73,-971.19,-0.20,-0.39,4.34,-16.20,9.90,-30.00,29.4
2000/01/01 00:18:00.82,IMU,-69.34,-44.92,-976.56,0.06,-2.37,-2.00,-14.25,10.50,-31.65,29.3
2000/01/01 00:18:00.92,IMU,-74.22,-60.06,-973.63,0.09,-0.30,0.66,-15.30,9.30,-33.30,29.3
2000/01/01 00:18:01.02,IMU,-57.13,-34.67,-959.47,-0.73,-2.64,-0.59,-14.25,9.75,-31.65,29.4
2000/01/01 00:18:01.12,IMU,-58.11,-41.50,-975.59,-2.52,-0.02,-0.79,-15.45,9.60,-32.10,29.3
2000/01/01 00:18:01.22,IMU,-68.85,-42.48,-963.87,-1.63,-1.58,0.37,-15.75,11.40,-30.75,29.3
2000/01/01 00:18:01.32,IMU,-64.94,-38.57,-971.68,-1.08,-1.92,-0.66,-14.70,10.35,-31.05,29.1
2000/01/01 00:18:01.42,IMU,-71.29,-50.78,-970.21,1.66,-1.02,-1.81,-15.75,9.90,-31.80,29.4
2000/01/01 00:18:01.52,IMU,-64.94,-44.43,-965.82,-1.38,-1.28,3.05,-15.75,9.90,-31.05,29.1
2000/01/01 00:18:01.62,IMU,-59.08,-49.80,-970.70,-0.89,0.11,-2.33,-16.05,10.50,-31.95,29.4
2000/01/01 00:18:01.73,IMU,-64.45,-35.16,-973.14,0.44,-1.75,1.76,-15.15,10.65,-31.35,29.2
2000/01/01 00:18:01.83,IMU,-72.75,-39.06,-961.43,0.99,0.20,1.50,-14.85,12.00,-30.90,29.4
2000/01/01 00:18:01.93,IMU,-61.52,-34.67,-977.54,-0.27,0.33,0.70,-16.65,11.55,-31.20,29.5
2000/01/01 00:18:02.03,IMU,-68.85,-41.50,-967.29,0.05,0.30,1.42,-14.85,12.00,-32.25,29.2
2000/01/01 00:18:02.13,IMU,-67.87,-37.11,-975.10,-0.27,-0.94,-1.69,-15.75,11.10,-31.80,29.2
2000/01/01 00:18:02.23,IMU,-66.89,-39.06,-960.94,-1.15,1.15,0.69,-15.45,10.35,-30.30,29.4
2000/01/01 00:18:02.33,IMU,-64.94,-41.02,-974.61,-1.35,-2.24,0.75,-14.70,10.65,-31.35,29.3
2000/01/01 00:18:02.43,IMU,-60.55,-46.39,-970.70,-0.99,2.00,0.56,-14.70,10.65,-30.75,29.4
2000/01/01 00:18:02.53,IMU,-70.80,-47.85,-972.66,1.53,-0.92,0.66,-14.55,10.05,-31.65,29.1
2000/01/01 00:18:02.63,IMU,-68.85,-51.27,-976.56,-0.75,0.16,0.85,-15.60,11.25,-31.65,29.5
2000/01/01 00:18:02.73,IMU,-63.96,-43.95,-957.52,-2.11,-0.90,-0.79,-15.30,9.30,-31.65,29.4
2000/01/01 00:18:02.83,IMU,-68.85,-48.34,-982.91,-0.21,-0.31,1.11,-15.60,9.75,-31.65,29.5
2000/01/01 00:18:02.93,IMU,-64.45,-38.57,-958.98,-0.72,-0.65,0.80,-15.60,10.50,-30.90,29.4
2000/01/01 00:18:03.03,IMU,-66.41,-59.57,-974.12,-1.90,2.16,0.98,-14.70,9.60,-31.80,29.4
2000/01/01 00:18:03.13,IMU,-81.54,-55.66,-964.36,0.21,-1.87,0.73,-13.80,10.05,-31.20,29.4
2000/01/01 00:18:03.24,IMU,-66.41,-44.92,-966.80,0.43,-2.58,-1.03,-15.30,10.80,-32.70,29.1
2000/01/01 00:18:03.34,IMU,-66.89,-52.73,-966.80,-1.56,-0.39,-1.34,-16.95,10.65,-31.35,29.3
2000/01/01 00:18:03.44,IMU,-59.57,-43.95,-979.49,-0.24,-1.10,-0.22,-16.35,11.25,-30.60,29.4
2000/01/01 00:18:03.54,IMU,-69.82,-47.85,-973.63,-1.31,-0.17,-0.27,-15.75,10.65,-31.35,29.4
2000/01/01 00:18:03.64,IMU,-77.15,-38.57,-971.68,0.97,-0.05,-2.63,-16.20,10.65,-30.75,29.4
2000/01/01 00:18:03.74,IMU,-73.73,-46.88,-965.82,0.25,0.15,1.21,-14.40,10.65,-31.80,29.1
2000/01/01 00:18:03.84,IMU,-69.82,-51.76,-977.05,-1.50,-1.82,-1.20,-14.40,11.85,-32.55,29.0
2000/01/01 00:18:03.94,IMU,-77.15,-44.43,-962.40,-0.57,0.89,2.44,-15.15,10.35,-31.35,29.6
2000/01/01 00:18:04.04,IMU,-62.01,-33.69,-962.40,-0.97,-2.65,1.02,-14.70,8.85,-30.75,29.5
2000/01/01 00:18:04.14,IMU,-52.25,-46.39,-976.07,-2.77,-0.24,-0.40,-13.80,10.50,-30.90,29.5
2000/01/01 00:18:04.24,IMU,-74.22,-49.80,-962.40,-0.47,0.95,-0.50,-13.95,9.15,-31.35,29.4
2000/01/01 00:18:04.34,IMU,-67.87,-45.41,-975.10,0.76,-3.11,1.15,-14.85,11.25,-31.20,29.1
2000/01/01 00:18:04.44,IMU,-65.43,-44.43,-970.70,0.47,0.72,1.97,-15.15,10.65,-32.85,29.4
2000/01/01 00:18:04.54,IMU,-57.13,-34.18,-972.17,-1.60,0.77,-0.22,-16.05,10.05,-30.60,29.2
2000/01/01 00:18:04.64,IMU,-65.92,-45.41,-970.21,-0.60,-0.29,-0.16,-15.60,9.75,-31.95,29.3
2000/01/01 00:18:04.75,IMU,-67.87,-43.95,-965.82,-2.34,-0.54,-0.37,-16.65,10.50,-32.25,29.4
2000/01/01 00:18:04.85,IMU,-66.89,-41.99,-964.36,-0.79,0.27,-4.49,-16.20,10.65,-30.75,29.4
2000/01/01 00:18:04.95,IMU,-60.55,-42.97,-971.68,-4.12,-2.44,-0.62,-15.60,11.55,-31.95,29.0
2000/01/01 00:18:05.05,IMU,-67.87,-55.18,-970.21,0.48,2.98,2.55,-15.75,10.35,-31.80,29.1
2000/01/01 00:18:05.15,IMU,-62.01,-49.32,-970.70,-1.51,-1.54,-1.66,-16.35,11.25,-32.25,29.5
2000/01/01 00:18:05.25,IMU,-64.45,-46.39,-972.17,-1.73,0.84,1.56,-13.95,10.65,-30.75,29.1
2000/01/01 00:18:05.35,IMU,-73.73,-42.97,-952.64,-1.47,-1.27,-2.63,-14.40,10.65,-31.35,29.4
2000/01/01 00:18:05.45,IMU,-55.66,-43.46,-962.89,-0.34,0.03,0.70,-15.15,11.10,-30.75,29.3
2000/01/01 00:18:05.55,IMU,-67.87,-40.04,-964.84,-1.50,-1.06,-0.82,-17.40,7.95,-28.05,29.3
2000/01/01 00:18:05.65,IMU,-83.50,-40.04,-974.12,-1.22,-0.97,-1.20,-15.30,10.50,-32.25,28.8
2000/01/01 00:18:05.75,IMU,-70.80,-46.39,-964.84,-0.41,-1.36,-3.01,-13.65,11.10,-32.10,29.1
2000/01/01 00:18:05.85,IMU,-67.38,-47.36,-971.68,-1.03,-0.31,1.66,-15.15,10.65,-32.10,29.3
2000/01/01 00:18:05.95,IMU,-63.96,-41.02,-978.03,-1.39,-1.06,-0.97,-14.55,10.05,-32.70,29.4
2000/01/01 00:18:06.05,IMU,-73.24,-45.90,-974.61,-0.19,-3.88,-0.63,-14.40,10.65,-32.10,29.3
2000/01/01 00:18:06.16,IMU,-52.73,-41.02,-978.52,0.30,-1.05,-0.82,-15.15,8.85,-30.75,29.4
2000/01/01 00:18:06.26,IMU,-64.45,-35.16,-970.21,-0.30,-2.17,-0.43,-14.85,10.05,-31.20,29.4
2000/01/01 00:18:06.36,IMU,-72.27,-37.60,-963.38,0.79,-0.06,-1.60,-15.60,10.50,-30.60,29.4
2000/01/01 00:18:06.46,IMU,-71.29,-48.83,-970.70,-0.79,-0.59,0.44,-15.30,9.75,-31.65,29.4
2000/01/01 00:18:06.56,IMU,-61.52,-45.90,-954.59,0.98,-0.55,-2.02,-16.50,9.60,-30.30,29.3
2000/01/01 00:18:06.66,IMU,-62.50,-31.25,-959.96,-0.94,-0.44,1.78,-14.55,10.50,-31.65,29.1
2000/01/01 00:18:06.76,IMU,-68.36,-44.92,-979.00,0.12,-2.18,1.11,-14.85,11.25,-33.00,29.4
2000/01/01 00:18:06.86,IMU,-64.45,-44.92,-974.61,-2.64,-1.73,1.02,-16.35,10.05,-31.95,29.4
2000/01/01 00:18:06.96,IMU,-74.22,-42.97,-965.33,0.34,-2.43,-1.92,-14.25,9.75,-31.20,29.3
2000/01/01 00:18:07.06,IMU,-67.87,-56.64,-968.75,-0.91,0.21,1.99,-15.30,10.05,-31.65,29.2
2000/01/01 00:18:07.16,IMU,-70.80,-37.60,-979.00,2.02,-1.67,-0.23,-15.30,10.05,-32.25,29.0
2000/01/01 00:18:07.26,IMU,-78.12,-38.57,-972.66,-0.90,-1.55,-0.11,-15.75,11.10,-31.80,29.1
2000/01/01 00:18:07.36,IMU,-82.52,-36.13,-964.36,-0.14,-1.18,3.50,-15.30,10.05,-32.25,29.4
2000/01/01 00:18:07.46,IMU,-64.45,-46.39,-963.87,-0.70,-2.77,-0.90,-14.40,11.10,-31.35,29.4
2000/01/01 00:18:07.57,IMU,-70.80,-50.29,-979.49,-1.56,-0.51,-0.99,-14.55,10.05,-32.70,29.4
2000/01/01 00:18:07.67,IMU,-64.45,-54.69,-980.47,-0.57,-0.32,2.21,-15.30,11.55,-33.00,29.5
2000/01/01 00:18:07.77,IMU,-77.15,-51.76,-968.75,1.85,0.56,-1.20,-14.70,10.35,-31.35,29.1
2000/01/01 00:18:07.87,IMU,-68.85,-41.02,-973.63,-0.52,-1.98,-3.11,-15.15,10.35,-30.00,29.4
2000/01/01 00:18:07.97,IMU,-69.82,-46.39,-954.10,-1.21,0.10,0.94,-15.45,9.90,-30.00,29.4
2000/01/01 00:18:08.07,IMU,-68.85,-56.64,-959.96,0.42,-3.14,0.58,-15.60,9.75,-31.65,29.6
2000/01/01 00:18:08.17,IMU,-72.27,-50.29,-968.75,-0.82,1.31,-0.66,-13.80,10.50,-31.65,29.3
2000/01/01 00:18:08.27,IMU,-80.57,-44.43,-972.66,0.11,-0.34,1.43,-14.55,9.75,-31.95,29.1
2000/01/01 00:18:08.37,IMU,-64.45,-50.29,-971.19,-1.34,-1.03,3.72,-14.40,10.65,-31.80,29.5
2000/01/01 00:18:08.47,IMU,-50.78,-43.95,-970.70,-1.40,0.60,1.08,-15.30,9.75,-31.65,29.3
2000/01/01 00:18:08.57,IMU,-68.36,-50.78,-969.24,-1.16,0.13,1.25,-16.50,10.35,-30.30,29.1
2000/01/01 00:18:08.67,IMU,-67.87,-60.06,-973.63,-2.50,-1.87,1.82,-15.45,10.65,-29.70,29.3
2000/01/01 00:18:08.77,IMU,-58.11,-50.78,-968.75,-0.53,-0.71,1.98,-14.85,10.50,-31.95,29.4
2000/01/01 00:18:08.87,IMU,-67.87,-49.80,-969.24,-0.89,0.85,1.91,-13.50,11.55,-31.65,29.2
2000/01/01 00:18:08.98,IMU,-61.04,-56.15,-976.07,-2.29,-0.80,1.76,-16.05,10.50,-31.65,29.4
2000/01/01 00:18:09.08,IMU,-76.17,-39.55,-968.75,-0.63,-0.32,-0.53,-13.95,11.10,-31.05,29.3
2000/01/01 00:18:09.18,IMU,-68.36,-43.95,-970.21,0.16,0.56,-1.03,-15.15,11.10,-31.35,29.4
2000/01/01 00:18:09.28,IMU,-72.27,-49.32,-963.38,-0.13,0.27,3.84,-16.05,10.05,-33.00,29.2
2000/01/01 00:18:09.38,IMU,-67.38,-44.43,-965.82,-0.54,-0.15,-0.69,-15.75,10.65,-32.55,29.4
2000/01/01 00:18:09.48,IMU,-63.48,-39.06,-979.00,-0.70,-3.71,1.61,-15.15,10.35,-31.05,29.2
2000/01/01 00:18:09.58,IMU,-70.80,-59.57,-982.42,-0.99,-2.18,0.27,-14.70,11.10,-31.05,29.1
2000/01/01 00:18:09.68,IMU,-67.38,-49.32,-969.24,0.15,-0.52,-3.29,-16.20,9.90,-31.35,29.1
2000/01/01 00:18:09.78,IMU,-70.31,-48.83,-979.00,-0.82,-0.89,0.60,-17.85,10.05,-31.20,29.5
2000/01/01 00:18:09.88,IMU,-66.89,-50.29,-979.00,-1.47,0.09,-0.05,-15.75,10.65,-31.35,29.5
2000/01/01 00:18:09.98,IMU,-77.64,-45.41,-963.38,-0.42,0.29,-1.98,-16.20,9.15,-31.35,29.1
2000/01/01 00:18:10.08,IMU,-69.82,-42.48,-968.75,-0.92,1.34,1.45,-15.60,10.50,-30.90,29.3
2000/01/01 00:18:10.18,IMU,-67.87,-41.50,-980.96,0.20,-2.56,-0.82,-13.50,11.25,-30.90,29.1
2000/01/01 00:18:10.28,IMU,-65.92,-41.50,-965.33,1.44,-1.21,0.48,-14.70,10.65,-32.10,29.4
2000/01/01 00:18:10.39,IMU,-72.27,-51.27,-971.19,-1.39,-0.36,0.98,-15.30,11.55,-31.65,29.4
2000/01/01 00:18:10.49,IMU,-58.59,-42.97,-976.56,-2.04,1.24,-0.56,-14.85,11.25,-30.60,29.1
2000/01/01 00:18:10.59,IMU,-86.91,-45.90,-963.38,-1.64,-2.17,-0.62,-15.60,9.75,-31.95,29.1
2000/01/01 00:18:10.69,IMU,-78.61,-52.25,-969.24,-1.50,-1.84,-3.33,-13.95,10.65,-30.00,29.4
2000/01/01 00:18:10.79,IMU,-62.50,-41.99,-984.38,0.02,0.92,-2.81,-14.85,10.05,-30.90,29.2
2000/01/01 00:18:10.89,IMU,-69.82,-50.29,-961.91,-2.97,1.81,0.19,-15.45,10.65,-31.05,29.1
2000/01/01 00:18:10.99,IMU,-57.62,-40.04,-968.75,-2.08,0.77,2.95,-15.75,9.90,-31.35,29.4
2000/01/01 00:18:11.09,IMU,-68.85,-50.29,-967.77,-2.13,-1.08,2.10,-15.75,11.10,-31.80,29.2
2000/01/01 00:18:11.19,IMU,-71.29,-37.11,-964.36,-0.40,-0.80,1.24,-14.85,10.05,-31.65,29.1
2000/01/01 00:18:11.29,IMU,-64.45,-65.43,-965.82,-0.01,-0.37,0.92,-15.75,9.90,-31.80,29.4
2000/01/01 00:18:11.39,IMU,-60.55,-49.32,-967.77,-0.84,-2.73,-1.25,-14.85,8.70,-31.95,29.4
2000/01/01 00:18:11.49,IMU,-77.64,-41.02,-971.68,0.95,-1.21,0.61,-14.70,9.60,-31.05,29.2
2000/01/01 00:18:11.59,IMU,-72.75,-46.88,-966.31,-1.32,-1.89,1.05,-15.60,10.50,-31.65,29.0
2000/01/01 00:18:11.69,IMU,-60.55,-50.78,-974.12,-1.05,-2.30,0.71,-15.75,10.65,-31.05,29.3
2000/01/01 00:18:11.79,IMU,-78.12,-44.43,-977.54,-0.59,-1.02,2.96,-14.85,9.75,-30.15,29.1
2000/01/01 00:18:11.89,IMU,-73.73,-54.20,-979.00,-1.47,0.58,0.56,-15.60,9.75,-32.70,29.4
2000/01/01 00:18:12.00,IMU,-76.66,-35.64,-968.26,-2.39,0.75,0.13,-15.45,11.40,-31.35,29.4
2000/01/01 00:18:12.10,IMU,-84.47,-47.36,-977.54,-0.31,-1.47,-0.99,-15.60,10.50,-31.95,29.2
2000/01/01 00:18:12.20,IMU,-79.10,-41.02,-963.87,-1.25,-0.06,-3.28,-15.75,8.85,-32.55,29.0
2000/01/01 00:18:12.30,IMU,-70.31,-57.62,-960.45,-1.21,-1.25,-1.18,-15.45,9.90,-32.85,29.2
2000/01/01 00:18:12.40,IMU,-75.20,-49.32,-969.73,0.75,-1.31,-0.11,-16.35,10.80,-31.65,29.2
2000/01/01 00:18:12.50,IMU,-58.59,-47.85,-970.21,-2.04,-3.70,-0.11,-15.75,9.90,-31.35,29.1
2000/01/01 00:18:12.60,IMU,-61.04,-39.55,-973.14,-0.40,-3.64,2.86,-15.60,9.30,-31.65,29.4
2000/01/01 00:18:12.70,IMU,-66.41,-51.76,-968.26,-1.84,-0.32,0.53,-14.85,10.50,-31.20,29.4
2000/01/01 00:18:12.80,IMU,-56.64,-47.85,-965.82,-3.18,-0.19,1.82,-15.75,11.10,-30.30,29.1
2000/01/01 00:18:12.90,IMU,-57.62,-50.29,-970.21,-0.53,0.47,1.86,-15.45,9.60,-31.35,29.4
2000/01/01 00:18:13.00,IMU,-70.31,-44.43,-973.14,-0.27,0.15,-0.21,-16.05,10.50,-30.90,29.4
2000/01/01 00:18:13.10,IMU,-70.80,-49.32,-969.24,0.69,-1.40,1.16,-15.45,11.10,-30.75,29.1
2000/01/01 00:18:13.20,IMU,-74.22,-47.85,-981.45,-0.33,0.59,-1.59,-16.35,11.55,-32.25,29.4
2000/01/01 00:18:13.30,IMU,-76.17,-46.39,-977.05,1.74,-2.37,-0.10,-14.85,9.00,-33.00,28.9
2000/01/01 00:18:13.41,IMU,-76.66,-55.18,-968.26,-0.88,-0.39,-0.81,-14.70,8.85,-31.05,29.1
2000/01/01 00:18:13.51,IMU,-65.92,-48.83,-966.31,-2.08,-0.77,-0.21,-14.40,10.65,-31.05,29.4
2000/01/01 00:18:13.61,IMU,-69.82,-40.53,-967.77,-0.73,-0.92,1.78,-15.30,10.50,-30.90,29.1
2000/01/01 00:18:13.71,IMU,-63.48,-41.02,-971.68,0.29,-0.50,-0.39,-18.45,8.70,-28.80,29.1
2000/01/01 00:18:13.81,IMU,-69.34,-52.73,-965.33,0.41,0.15,0.77,-14.25,11.25,-31.20,29.4
2000/01/01 00:18:13.91,IMU,-72.27,-51.27,-966.80,0.58,-1.36,0.90,-14.25,9.75,-31.95,29.0
2000/01/01 00:18:14.01,IMU,-58.11,-41.50,-979.00,-1.85,-1.39,1.76,-15.75,11.40,-31.80,29.1
2000/01/01 00:18:14.11,IMU,-67.38,-49.32,-974.61,0.77,-1.00,-2.26,-15.45,11.40,-31.05,29.4
2000/01/01 00:18:14.21,IMU,-61.52,-51.27,-963.38,0.73,-2.07,-0.56,-15.45,9.90,-31.05,29.5
2000/01/01 00:18:14.31,IMU,-78.61,-32.71,-984.86,-0.36,-0.81,-2.02,-15.45,10.65,-31.35,29.1
2000/01/01 00:18:14.41,IMU,-67.38,-61.52,-966.80,-2.27,-0.07,-0.11,-14.55,10.80,-31.65,29.1
2000/01/01 00:18:14.51,IMU,-34.67,-35.64,-990.23,-0.50,-0.56,2.89,-15.45,11.10,-32.85,29.1
2000/01/01 00:18:14.61,IMU,-60.55,-57.13,-981.45,-0.14,-3.71,0.80,-13.05,10.50,-31.65,29.3
2000/01/01 00:18:14.72,IMU,-62.99,-41.02,-962.40,-2.20,-0.60,0.83,-18.45,8.70,-27.00,29.0
2000/01/01 00:18:14.82,IMU,-67.38,-40.04,-933.11,-3.14,-0.38,-2.55,-14.40,10.35,-29.70,29.1
2000/01/01 00:18:14.92,IMU,-86.43,-31.74,-1019.04,-2.08,0.27,-2.94,-14.85,10.80,-30.15,29.2
2000/01/01 00:18:15.02,IMU,-63.96,-48.34,-975.10,-0.47,-2.68,0.69,-14.25,9.30,-29.55,29.2
2000/01/01 00:18:15.14,IMU,-67.87,-51.27,-970.70,-0.57,-0.87,-1.64,-15.30,11.55,-29.55,29.1
2000/01/01 00:18:15.24,IMU,-78.61,-45.90,-969.24,-0.14,0.56,0.66,-14.40,10.65,-30.00,28.8
2000/01/01 00:18:15.35,IMU,-72.75,-37.11,-979.00,1.32,-1.92,-0.97,-14.25,10.80,-29.55,29.2
2000/01/01 00:18:15.45,IMU,-65.43,-44.92,-969.24,-3.08,0.31,0.16,-13.50,10.80,-30.90,29.0
2000/01/01 00:18:15.55,IMU,-73.73,-42.48,-975.10,0.95,-0.64,1.63,-13.80,10.05,-30.60,29.1
2000/01/01 00:18:15.65,IMU,-61.04,-48.34,-968.26,-0.49,-0.34,0.90,-15.30,9.30,-29.85,29.1
2000/01/01 00:18:15.75,IMU,-63.48,-39.06,-969.24,-1.50,1.34,-1.10,-16.95,9.90,-28.20,29.4
2000/01/01 00:18:15.85,IMU,-69.82,-45.90,-972.66,-2.18,0.73,-1.69,-15.45,11.40,-30.00,29.4
2000/01/01 00:18:15.95,IMU,-65.43,-58.11,-972.17,-0.91,-0.82,0.73,-15.45,11.10,-31.05,29.2
2000/01/01 00:18:16.05,IMU,-54.20,-46.88,-963.38,-1.73,-1.53,-1.69,-14.70,10.65,-30.00,29.4
2000/01/01 00:18:16.15,IMU,-61.52,-49.32,-960.94,-0.58,-0.92,-1.17,-15.75,11.85,-30.00,29.3
2000/01/01 00:18:16.25,IMU,-58.11,-43.46,-969.24,0.27,1.05,-1.75,-15.75,10.65,-31.05,29.4
2000/01/01 00:18:16.35,IMU,-76.17,-35.64,-963.38,-0.31,-1.69,1.43,-15.60,9.75,-29.85,29.1
2000/01/01 00:18:16.45,IMU,-63.48,-49.32,-974.12,-2.76,-1.67,0.07,-14.70,13.20,-29.70,29.4
2000/01/01 00:18:16.55,IMU,-58.11,-52.25,-970.70,0.00,-2.06,1.31,-14.70,10.35,-30.75,29.5
2000/01/01 00:18:16.65,IMU,-72.27,-51.27,-972.66,-1.10,-2.59,0.50,-14.55,10.50,-31.65,29.1
2000/01/01 00:18:16.75,IMU,-56.64,-56.15,-976.56,-1.08,-0.56,-2.45,-15.15,10.35,-28.65,29.5
2000/01/01 00:18:16.86,IMU,-60.06,-48.34,-964.36,-0.15,-1.24,1.54,-13.95,11.40,-31.05,29.3
2000/01/01 00:18:16.96,IMU,-63.96,-34.67,-962.40,-0.89,-2.02,1.11,-13.50,10.80,-29.85,28.8
2000/01/01 00:18:17.06,IMU,-64.45,-41.02,-970.21,-1.51,-1.21,0.44,-13.50,10.80,-29.85,29.4
2000/01/01 00:18:17.16,IMU,-60.55,-44.43,-975.59,-0.82,-1.27,-3.08,-13.50,10.80,-30.15,29.4
2000/01/01 00:18:17.26,IMU,-74.22,-45.90,-975.10,-1.35,-1.78,-0.21,-14.85,11.25,-30.15,29.5
2000/01/01 00:18:17.36,IMU,-62.01,-55.66,-970.70,0.40,-2.79,-0.34,-13.80,10.50,-29.10,29.1
2000/01/01 00:18:17.46,IMU,-70.80,-39.55,-982.42,0.56,-0.99,-0.05,-14.40,9.60,-30.75,29.0
2000/01/01 00:18:17.56,IMU,-67.38,-48.34,-977.05,-1.76,-0.85,-0.08,-15.60,11.25,-29.10,29.5
2000/01/01 00:18:17.66,IMU,-70.80,-41.02,-969.24,-2.53,-1.75,0.16,-13.95,11.40,-30.00,29.4
2000/01/01 00:18:17.76,IMU,-77.64,-40.53,-968.26,0.14,0.06,-0.85,-14.85,10.50,-30.15,29.3
2000/01/01 00:18:17.86,IMU,-64.94,-45.41,-967.77,-0.82,-2.39,-1.44,-12.90,11.10,-30.75,29.1
2000/01/01 00:18:17.96,IMU,-66.41,-43.46,-964.84,-1.55,0.28,-0.06,-14.40,11.40,-30.00,29.1
2000/01/01 00:18:18.06,IMU,-66.41,-38.09,-970.70,-2.02,-1.21,1.39,-13.95,11.40,-29.70,29.4
2000/01/01 00:18:18.16,IMU,-71.78,-43.95,-970.70,-3.32,-2.47,-0.92,-13.80,11.55,-31.20,29.1
2000/01/01 00:18:18.27,IMU,-63.48,-33.69,-966.31,0.53,-2.74,2.29,-15.45,10.35,-30.00,29.3
2000/01/01 00:18:18.37,IMU,-57.13,-40.53,-968.75,-1.15,0.46,1.71,-14.85,10.50,-29.55,29.5
2000/01/01 00:18:18.47,IMU,-69.34,-47.85,-970.21,-0.89,0.20,-0.57,-12.75,9.30,-31.65,29.4
2000/01/01 00:18:18.57,IMU,-59.57,-50.29,-981.45,-0.01,-0.60,-2.37,-15.75,10.65,-31.05,29.1
2000/01/01 00:18:18.67,IMU,-66.89,-33.69,-971.68,-2.66,0.09,0.56,-14.70,10.35,-30.00,29.3
2000/01/01 00:18:18.77,IMU,-64.45,-41.02,-967.77,0.17,-1.26,0.44,-14.85,10.50,-30.15,29.4
2000/01/01 00:18:18.87,IMU,-68.85,-47.85,-969.24,-2.18,-3.49,2.64,-14.25,10.80,-29.55,29.1
2000/01/01 00:18:18.97,IMU,-58.11,-46.39,-971.19,-1.05,-0.69,0.62,-14.55,11.25,-30.60,29.1
2000/01/01 00:18:19.07,IMU,-63.48,-50.29,-964.84,-0.68,0.34,0.73,-14.85,11.25,-30.60,29.0
2000/01/01 00:18:19.17,IMU,-60.06,-44.43,-964.84,-2.18,-1.39,0.18,-15.15,11.10,-30.00,28.9
2000/01/01 00:18:19.27,IMU,-66.41,-42.48,-963.87,1.22,1.61,2.77,-15.60,10.05,-31.65,29.4
2000/01/01 00:18:19.37,IMU,-60.55,-44.43,-969.24,-1.73,-1.03,-1.40,-14.25,9.75,-31.65,29.2
2000/01/01 00:18:19.47,IMU,-68.36,-49.80,-977.54,-1.40,1.76,0.02,-14.55,10.05,-30.60,29.3
2000/01/01 00:18:19.57,IMU,-62.99,-45.90,-965.82,0.28,-3.42,0.27,-16.05,10.80,-30.15,29.4
2000/01/01 00:18:19.67,IMU,-68.36,-46.88,-967.29,0.86,-1.10,1.32,-15.60,10.50,-32.25,28.9
2000/01/01 00:18:19.77,IMU,-79.59,-40.04,-964.84,1.37,0.95,-2.42,-14.55,11.25,-29.85,29.5
2000/01/01 00:18:19.88,IMU,-83.98,-40.53,-977.05,-0.13,1.77,-2.50,-14.85,11.25,-29.85,29.6
2000/01/01 00:18:19.98,IMU,-62.01,-45.90,-968.75,-2.37,-1.94,0.44,-15.45,10.65,-31.05,29.1
2000/01/01 00:18:20.08,IMU,-79.10,-43.95,-966.31,-0.97,-0.59,-4.21,-13.80,10.80,-31.65,29.4
2000/01/01 00:18:20.18,IMU,-68.85,-61.04,-972.17,-1.15,-1.69,-0.03,-14.55,11.25,-30.90,29.0
2000/01/01 00:18:20.28,IMU,-62.99,-33.69,-978.52,0.07,1.60,2.19,-13.95,10.35,-31.35,29.3
2000/01/01 00:18:20.38,IMU,-72.27,-43.95,-967.77,-1.44,-0.34,-1.71,-15.75,10.35,-29.70,29.4
2000/01/01 00:18:20.48,IMU,-58.11,-44.43,-959.47,-2.10,1.30,1.73,-14.40,9.90,-31.05,29.4
2000/01/01 00:18:20.58,IMU,-76.17,-48.83,-958.98,-2.25,-2.33,-0.28,-14.25,10.50,-30.90,29.2
2000/01/01 00:18:20.68,IMU,-82.52,-41.99,-959.47,0.30,-3.15,-1.89,-14.70,11.10,-30.30,29.4
2000/01/01 00:18:20.78,IMU,-67.87,-41.99,-976.07,-1.49,-0.02,1.83,-14.70,11.85,-31.80,29.3
2000/01/01 00:18:20.88,IMU,-71.29,-50.29,-973.14,-1.81,0.60,-0.95,-13.80,10.05,-31.20,29.4
2000/01/01 00:18:20.98,IMU,-66.89,-49.80,-964.84,2.18,-0.19,1.33,-14.25,10.80,-30.15,29.1
2000/01/01 00:18:21.08,IMU,-73.73,-44.92,-969.24,-2.40,-0.90,0.45,-15.75,9.90,-30.30,29.2
2000/01/01 00:18:21.18,IMU,-58.11,-43.95,-966.80,-1.98,-0.24,0.44,-14.40,10.35,-29.70,29.3
2000/01/01 00:18:21.29,IMU,-72.27,-54.69,-961.43,-2.27,1.04,-0.22,-13.05,10.50,-30.60,29.4
2000/01/01 00:18:21.39,IMU,-66.41,-37.60,-980.47,-0.31,1.02,-0.38,-14.85,10.80,-30.90,29.1
2000/01/01 00:18:21.49,IMU,-63.96,-42.48,-967.29,0.08,0.54,-1.31,-15.15,11.10,-31.35,29.3
2000/01/01 00:18:21.59,IMU,-68.85,-47.36,-979.98,2.82,0.06,0.08,-14.85,10.05,-30.60,29.3
2000/01/01 00:18:21.69,IMU,-64.94,-37.60,-965.82,-0.58,1.67,-2.14,-13.95,11.40,-28.95,29.4
2000/01/01 00:18:21.79,IMU,-68.85,-48.34,-975.59,0.01,-1.51,-0.63,-16.05,10.80,-30.90,29.0
2000/01/01 00:18:21.89,IMU,-60.55,-45.90,-967.77,-0.86,-1.89,-0.37,-14.55,11.55,-30.90,29.1
2000/01/01 00:18:21.99,IMU,-68.36,-46.88,-962.40,-1.23,-2.81,0.09,-13.35,11.85,-30.00,29.2
2000/01/01 00:18:22.09,IMU,-74.71,-44.43,-974.61,-1.99,-1.06,-0.35,-15.75,11.85,-30.75,29.4
2000/01/01 00:18:22.19,IMU,-63.48,-45.41,-976.56,-1.35,1.66,0.36,-13.50,11.55,-30.60,29.1
2000/01/01 00:18:22.29,IMU,-63.48,-52.25,-980.47,-0.06,-0.34,-0.10,-14.55,10.50,-30.60,29.3
2000/01/01 00:18:22.39,IMU,-65.92,-42.48,-962.89,-0.38,0.19,-1.87,-14.25,10.50,-31.20,29.1
2000/01/01 00:18:22.49,IMU,-67.87,-41.99,-961.91,0.46,-3.94,-1.70,-15.15,10.35,-31.05,29.4
2000/01/01 00:18:22.59,IMU,-66.89,-49.80,-962.89,-1.68,-0.60,-2.69,-15.30,11.55,-31.20,29.5
2000/01/01 00:18:22.69,IMU,-77.15,-50.29,-973.63,-1.51,-1.51,2.83,-14.40,10.65,-29.70,29.4
2000/01/01 00:18:22.80,IMU,-67.87,-39.55,-974.12,-1.35,-0.56,-0.47,-13.95,10.65,-31.35,29.3
2000/01/01 00:18:22.90,IMU,-36.13,-33.69,-914.06,-2.09,-2.05,0.82,-14.85,9.30,-31.20,29.2
2000/01/01 00:18:23.00,IMU,-55.18,-37.60,-968.26,-0.31,-1.59,0.11,-14.40,11.40,-30.30,28.8
2000/01/01 00:18:23.10,IMU,-62.01,-44.92,-971.68,-0.59,-1.96,-3.17,-14.55,9.30,-30.15,29.5
2000/01/01 00:18:23.20,IMU,-62.01,-40.53,-971.19,-1.14,-1.95,1.43,-13.95,11.40,-30.30,29.4
2000/01/01 00:18:23.30,IMU,-55.66,-51.76,-968.75,-1.94,0.35,-1.53,-15.15,11.10,-30.00,29.4
2000/01/01 00:18:23.40,IMU,-62.50,-53.22,-962.40,0.24,0.15,0.25,-13.35,10.35,-30.30,29.1
2000/01/01 00:18:23.50,IMU,-60.06,-50.29,-971.19,1.00,-1.77,2.36,-14.40,9.60,-31.05,29.5
2000/01/01 00:18:23.60,IMU,-73.73,-48.34,-973.63,0.48,0.51,1.46,-14.25,10.50,-30.15,29.4
2000/01/01 00:18:23.70,IMU,-73.24,-49.80,-969.24,0.70,-0.46,4.08,-13.65,10.35,-31.35,29.2
2000/01/01 00:18:23.80,IMU,-72.75,-36.13,-967.77,-1.21,-0.23,-2.98,-14.55,10.05,-29.85,29.1
2000/01/01 00:18:23.90,IMU,-66.41,-48.34,-973.14,-0.75,1.11,1.11,-16.20,11.85,-28.95,29.5
2000/01/01 00:18:24.00,IMU,-60.55,-42.48,-966.31,-0.04,-2.04,-1.37,-14.70,11.40,-30.30,29.2
2000/01/01 00:18:24.10,IMU,-64.45,-45.41,-964.36,-0.79,-0.45,2.02,-14.70,11.40,-30.30,29.3
2000/01/01 00:18:24.21,IMU,-63.96,-45.41,-966.80,-2.07,-2.76,0.39,-14.85,11.25,-30.15,29.3
2000/01/01 00:18:24.31,IMU,-66.89,-38.09,-978.03,-0.73,0.14,2.40,-16.05,11.25,-30.60,29.1
2000/01/01 00:18:24.41,IMU,-62.01,-45.90,-969.24,-0.95,0.42,-0.73,-14.25,10.80,-30.90,29.6
2000/01/01 00:18:24.51,IMU,-71.78,-50.78,-971.68,-1.11,-0.77,-0.15,-12.90,10.65,-31.05,29.2
2000/01/01 00:18:24.61,IMU,-70.31,-41.50,-962.89,-1.04,1.63,2.69,-15.75,11.40,-30.75,29.1
2000/01/01 00:18:24.71,IMU,-75.68,-36.13,-965.33,-1.06,-0.89,-1.32,-14.85,10.05,-29.85,29.4
2000/01/01 00:18:24.81,IMU,-66.89,-52.73,-964.84,0.10,0.08,0.08,-14.70,11.40,-30.00,29.4
2000/01/01 00:18:24.91,IMU,-57.62,-43.46,-971.19,0.66,0.76,-0.33,-18.00,6.90,-25.35,29.2
2000/01/01 00:18:25.01,IMU,-66.41,-31.74,-975.10,-0.68,-1.24,0.60,-14.85,9.75,-29.85,29.3
2000/01/01 00:18:25.11,IMU,-66.41,-53.71,-966.31,0.28,-1.03,-0.55,-14.55,10.80,-31.20,29.4
2000/01/01 00:18:25.21,IMU,-70.31,-46.88,-971.19,-0.40,-1.06,1.29,-14.85,11.55,-29.55,29.4
2000/01/01 00:18:25.31,IMU,-58.11,-43.95,-971.19,-1.26,1.08,0.58,-16.05,10.50,-30.15,29.1
2000/01/01 00:18:25.41,IMU,-72.27,-40.04,-975.10,-0.80,-0.19,-0.05,-14.70,10.35,-30.00,29.4
2000/01/01 00:18:25.51,IMU,-56.15,-51.76,-965.82,0.13,-0.41,-2.56,-14.85,11.25,-30.90,29.2
2000/01/01 00:18:25.61,IMU,-65.43,-49.32,-979.98,-0.51,-3.51,1.90,-14.40,10.35,-30.75,29.1
2000/01/01 00:18:25.71,IMU,-63.48,-49.32,-970.21,-1.39,-1.00,-0.36,-14.40,10.35,-29.25,29.2
2000/01/01 00:18:25.82,IMU,-54.20,-41.99,-966.80,-0.92,-1.28,1.97,-13.65,10.65,-31.80,29.3
2000/01/01 00:18:25.92,IMU,-57.62,-40.53,-973.63,-2.55,-1.51,-0.52,-18.75,8.10,-25.80,29.1
2000/01/01 00:18:26.02,IMU,-62.99,-46.39,-979.98,-1.13,-0.37,1.71,-14.85,11.55,-29.85,29.5
2000/01/01 00:18:26.12,IMU,-57.13,-43.46,-958.50,1.56,-1.33,-0.83,-14.70,10.65,-31.05,29.1
2000/01/01 00:18:26.22,IMU,-77.64,-46.39,-977.54,0.47,-3.59,-0.17,-14.40,10.65,-30.75,29.1
2000/01/01 00:18:26.32,IMU,-64.45,-49.80,-971.19,2.31,-1.15,1.90,-14.85,10.05,-30.90,29.0
2000/01/01 00:18:26.42,IMU,-70.31,-48.83,-968.26,0.39,-0.11,0.34,-13.80,10.80,-29.85,29.3
2000/01/01 00:18:26.52,IMU,-52.73,-40.04,-978.03,-1.12,-0.85,-0.54,-13.80,10.05,-31.20,29.4
2000/01/01 00:18:26.62,IMU,-65.43,-46.88,-971.19,-1.82,-0.55,1.69,-14.70,11.10,-30.30,29.3
2000/01/01 00:18:26.73,IMU,-59.08,-33.69,-966.31,-2.92,-2.15,1.69,-15.30,11.25,-30.90,29.3
2000/01/01 00:18:26.83,IMU,-69.34,-53.22,-960.45,-0.24,-1.47,1.19,-14.85,10.80,-31.20,28.8
2000/01/01 00:18:26.93,IMU,-63.48,-35.64,-962.89,-2.19,0.57,-0.86,-14.70,10.65,-31.35,29.3
2000/01/01 00:18:27.03,IMU,-60.06,-38.57,-969.73,0.00,-1.75,1.43,-14.40,9.60,-29.70,29.3
2000/01/01 00:18:27.13,IMU,-68.36,-35.64,-975.59,0.21,-0.98,0.73,-16.05,11.25,-30.90,29.3
2000/01/01 00:18:27.23,IMU,-69.34,-45.41,-966.80,-0.97,1.86,1.44,-15.30,11.25,-29.85,29.4
2000/01/01 00:18:27.33,IMU,-50.29,-43.95,-969.24,-0.86,-3.99,-1.38,-15.15,10.35,-30.75,29.3
2000/01/01 00:18:27.43,IMU,-60.55,-37.11,-974.12,-0.89,1.12,0.77,-14.85,11.55,-29.10,29.4
2000/01/01 00:18:27.53,IMU,-62.50,-40.04,-970.21,0.27,1.08,-1.99,-15.30,10.80,-30.60,29.1
2000/01/01 00:18:27.63,IMU,-65.43,-44.43,-971.19,-0.46,0.07,0.37,-14.70,10.35,-29.70,29.2
2000/01/01 00:18:27.73,IMU,-76.17,-36.62,-978.03,-0.90,0.57,-0.99,-15.30,10.80,-29.10,29.4
2000/01/01 00:18:27.83,IMU,-60.06,-58.59,-970.70,-1.00,-0.16,0.04,-15.60,9.75,-30.15,29.3
2000/01/01 00:18:27.93,IMU,-64.94,-41.99,-971.68,-0.63,-1.13,-0.52,-15.15,9.60,-30.75,29.1
2000/01/01 00:18:28.03,IMU,-64.94,-32.23,-930.18,-2.07,0.99,-0.44,-14.70,9.90,-30.30,29.1
2000/01/01 00:18:28.14,IMU,-62.01,-55.66,-965.82,-3.37,-2.34,-1.21,-15.30,9.75,-29.55,29.3
2000/01/01 00:18:28.24,IMU,-58.11,-36.13,-965.33,-0.81,0.44,-1.36,-15.15,11.10,-31.05,29.0
2000/01/01 00:18:28.34,IMU,-73.24,-49.32,-963.87,-1.22,-1.21,1.41,-14.70,9.90,-29.70,29.3
2000/01/01 00:18:28.44,IMU,-69.34,-29.30,-946.29,-0.34,-0.80,2.37,-16.50,12.45,-28.95,29.1
2000/01/01 00:18:28.54,IMU,-65.92,-49.32,-965.33,-1.59,-0.53,-0.76,-14.85,9.30,-30.90,29.1
2000/01/01 00:18:28.64,IMU,-61.52,-45.90,-962.89,-0.49,-0.38,1.03,-13.50,10.50,-30.90,29.4
2000/01/01 00:18:28.74,IMU,-74.71,-47.85,-972.66,-1.62,-4.06,1.47,-14.55,10.50,-30.60,29.3
2000/01/01 00:18:28.84,IMU,-65.43,-41.99,-973.63,1.02,1.42,2.06,-15.75,10.65,-30.75,29.1
2000/01/01 00:18:28.94,IMU,-64.94,-42.48,-958.50,0.21,-0.15,0.09,-16.05,10.50,-30.15,29.3
2000/01/01 00:18:29.04,IMU,-50.78,-44.43,-986.33,-0.22,-1.20,-1.46,-14.25,9.75,-29.85,29.1
2000/01/01 00:18:29.14,IMU,-71.29,-38.57,-965.82,0.65,1.24,-1.73,-15.30,10.50,-30.60,29.0
2000/01/01 00:18:29.24,IMU,-69.34,-35.64,-968.75,-1.16,0.21,3.59,-13.05,11.55,-31.35,29.1
2000/01/01 00:18:29.34,IMU,-77.64,-37.11,-968.26,-1.00,-0.11,-0.01,-14.40,9.15,-30.30,29.2
2000/01/01 00:18:29.44,IMU,-63.96,-44.92,-970.21,-0.32,-2.62,-0.36,-15.45,11.40,-31.80,29.5
2000/01/01 00:18:29.54,IMU,-66.89,-52.73,-963.38,-1.57,-0.79,-0.91,-15.75,11.10,-31.35,29.3
2000/01/01 00:18:29.65,IMU,-59.57,-46.88,-970.21,2.11,-0.41,-1.70,-15.60,9.30,-29.55,29.1
2000/01/01 00:18:29.75,IMU,-73.24,-40.04,-963.87,-0.17,-0.92,0.32,-15.45,9.90,-31.35,29.4
2000/01/01 00:18:29.85,IMU,-55.18,-44.43,-962.89,-0.61,-1.32,0.42,-15.45,10.35,-30.75,29.1
2000/01/01 00:18:29.95,IMU,-77.64,-55.66,-969.24,-0.73,0.44,-1.35,-14.70,10.35,-30.75,29.4
2000/01/01 00:18:30.05,IMU,-60.55,-50.29,-971.68,-1.59,-0.51,-1.88,-16.50,9.90,-30.75,29.1
2000/01/01 00:18:30.15,IMU,-68.85,-44.43,-959.47,-2.01,-0.66,0.03,-14.70,10.35,-29.25,29.3
2000/01/01 00:18:30.28,IMU,-66.41,-50.78,-965.82,-0.30,-1.42,-2.67,-14.40,10.35,-31.05,29.2
2000/01/01 00:18:30.38,IMU,-53.71,-42.97,-969.73,-1.59,2.05,0.61,-16.35,10.80,-29.10,29.1
2000/01/01 00:18:30.48,IMU,-69.82,-42.48,-965.33,-0.98,-3.38,5.44,-14.85,10.80,-30.15,28.9
2000/01/01 00:18:30.58,IMU,-75.20,-41.99,-972.17,-0.44,-0.73,-0.13,-14.85,10.05,-30.15,29.1
2000/01/01 00:18:30.68,IMU,-62.50,-54.20,-972.66,1.06,-1.02,-1.79,-15.75,11.85,-30.75,29.3
2000/01/01 00:18:30.78,IMU,-54.20,-40.53,-970.21,-0.29,-0.63,0.00,-14.85,10.50,-29.85,29.4
2000/01/01 00:18:30.89,IMU,-62.01,-51.76,-976.56,0.85,-0.70,3.39,-15.15,9.90,-31.05,29.3
2000/01/01 00:18:31.76,IMU,-66.89,-51.76,-971.19,-2.05,0.50,-0.96,-15.30,9.00,-29.10,29.2
2000/01/01 00:18:31.86,IMU,-61.04,-51.76,-962.89,0.13,-0.96,-2.69,-14.25,10.50,-30.15,29.4
2000/01/01 00:18:31.96,IMU,-65.92,-47.85,-968.75,-0.63,0.09,-0.87,-14.85,10.05,-28.80,28.8
2000/01/01 00:18:32.06,IMU,-60.06,-48.34,-964.36,0.14,-0.31,0.95,-13.65,10.65,-30.30,29.0
2000/01/01 00:18:32.16,IMU,-62.50,-30.76,-967.29,-1.67,0.82,3.56,-14.25,10.80,-29.85,29.2
2000/01/01 00:18:32.26,IMU,-66.89,-55.18,-965.33,0.10,-0.64,-2.75,-14.55,9.75,-29.85,29.3
2000/01/01 00:18:32.36,IMU,-60.06,-45.41,-973.63,-0.46,1.53,0.76,-15.45,10.35,-31.05,29.2
2000/01/01 00:18:32.46,IMU,-70.31,-42.48,-982.42,1.11,-0.91,1.05,-14.85,10.05,-30.15,29.2
2000/01/01 00:18:32.56,IMU,-68.85,-52.25,-966.31,0.56,-1.33,4.42,-16.20,10.65,-28.95,29.1
2000/01/01 00:18:32.67,IMU,-63.96,-59.57,-957.03,0.92,-1.63,0.41,-16.05,10.80,-28.80,29.2
2000/01/01 00:18:32.77,IMU,-69.34,-44.92,-959.96,-0.98,1.37,1.83,-15.45,9.15,-29.70,29.1
2000/01/01 00:18:32.87,IMU,-57.62,-40.53,-971.19,0.95,-1.53,0.02,-15.75,12.15,-30.30,29.0
2000/01/01 00:18:32.97,IMU,-61.52,-46.88,-972.66,1.17,1.47,-3.21,-14.70,11.40,-29.70,29.3
2000/01/01 00:18:33.07,IMU,-77.15,-41.99,-959.96,-2.95,0.79,1.20,-15.45,10.65,-30.00,29.2
2000/01/01 00:18:33.17,IMU,-63.48,-52.25,-959.96,-0.31,-1.27,-0.22,-13.95,9.60,-29.70,29.1
2000/01/01 00:18:33.27,IMU,-65.43,-42.97,-960.45,-1.11,0.08,1.80,-15.15,10.65,-31.05,29.1
2000/01/01 00:18:33.37,IMU,-66.89,-49.32,-971.68,0.53,-1.25,-0.53,-14.85,10.50,-30.90,29.1
2000/01/01 00:18:33.47,IMU,-64.45,-51.27,-972.17,-3.27,-0.55,0.33,-14.85,11.25,-29.10,28.8
2000/01/01 00:18:33.57,IMU,-73.73,-47.85,-963.38,-0.04,-1.11,0.57,-14.25,8.70,-29.85,29.5
2000/01/01 00:18:33.67,IMU,-60.55,-51.76,-971.19,-2.02,1.49,1.11,-15.30,10.80,-29.85,29.2
2000/01/01 00:18:33.77,IMU,-56.15,-47.36,-961.91,-1.10,-0.44,-0.75,-15.30,10.50,-29.85,29.4
2000/01/01 00:18:33.87,IMU,-76.17,-36.13,-977.05,-0.74,2.03,-3.36,-15.30,10.50,-30.15,29.4
2000/01/01 00:18:33.97,IMU,-56.64,-38.57,-975.10,1.47,0.98,0.57,-15.15,11.10,-29.70,29.2
2000/01/01 00:18:34.07,IMU,-69.34,-43.95,-981.45,1.00,-1.70,-0.62,-15.30,10.80,-29.55,29.4
2000/01/01 00:18:34.18,IMU,-70.31,-43.95,-959.96,-1.24,0.13,1.20,-15.45,10.35,-30.00,29.1
2000/01/01 00:18:34.28,IMU,-53.71,-40.53,-962.40,-2.30,-1.33,1.79,-14.55,9.00,-29.85,29.1
2000/01/01 00:18:34.38,IMU,-72.75,-43.95,-973.63,0.55,-2.57,2.86,-14.40,9.90,-30.30,29.4
2000/01/01 00:18:34.48,IMU,-72.75,-53.71,-978.52,-0.64,-0.31,1.81,-14.70,12.45,-29.25,29.0
2000/01/01 00:18:34.58,IMU,-65.43,-58.59,-983.89,-1.34,0.21,2.63,-13.95,10.65,-28.65,29.1
2000/01/01 00:18:34.68,IMU,-79.59,-34.67,-961.91,-1.30,0.99,1.50,-15.30,10.80,-30.60,29.2
2000/01/01 00:18:34.78,IMU,-64.94,-46.39,-979.98,-0.98,-2.06,0.82,-15.60,10.80,-30.90,29.5
2000/01/01 00:18:34.88,IMU,-64.94,-51.27,-972.17,-0.21,-0.86,-0.50,-15.60,12.00,-29.85,29.1
2000/01/01 00:18:34.98,IMU,-76.17,-38.09,-969.24,-0.54,0.76,1.91,-15.75,10.35,-29.25,29.4
2000/01/01 00:18:35.08,IMU,-64.45,-40.53,-967.29,-3.15,-1.88,-2.64,-13.95,9.15,-29.70,29.0
2000/01/01 00:18:35.18,IMU,-68.85,-46.88,-967.77,-1.01,-0.56,2.34,-15.30,11.25,-30.60,29.4
2000/01/01 00:18:35.28,IMU,-57.62,-32.71,-974.61,0.81,-0.10,2.60,-16.05,9.75,-29.55,29.2
2000/01/01 00:18:35.38,IMU,-72.27,-43.46,-974.12,-1.65,0.02,-2.02,-15.45,11.40,-30.30,29.1
2000/01/01 00:18:35.48,IMU,-71.78,-44.92,-961.91,-1.34,1.35,1.24,-15.75,10.35,-29.25,29.4
2000/01/01 00:18:35.59,IMU,-66.89,-42.97,-956.54,-2.47,-0.15,-2.47,-16.05,9.30,-30.60,29.0
2000/01/01 00:18:35.69,IMU,-69.82,-52.25,-963.38,-0.79,-1.85,2.20,-13.95,10.65,-28.95,29.3
2000/01/01 00:18:35.79,IMU,-59.57,-47.36,-967.77,-0.57,-2.09,1.18,-13.95,9.60,-29.70,29.1
2000/01/01 00:18:35.89,IMU,-65.92,-45.90,-958.50,-0.21,-1.65,0.35,-14.85,10.50,-30.15,29.1
2000/01/01 00:18:35.99,IMU,-65.92,-40.53,-965.82,0.31,1.43,-0.84,-15.60,9.75,-29.10,29.2
2000/01/01 00:18:36.09,IMU,-64.45,-41.50,-969.73,0.36,0.44,0.91,-15.75,9.60,-29.70,28.9
2000/01/01 00:18:36.19,IMU,-65.92,-41.02,-964.36,0.37,-1.49,-1.25,-14.40,10.35,-31.05,29.1
2000/01/01 00:18:36.29,IMU,-71.29,-44.92,-975.10,-1.34,-2.11,1.47,-15.75,10.35,-30.75,28.9
2000/01/01 00:18:36.39,IMU,-71.29,-52.25,-971.19,-0.51,-0.97,0.05,-14.85,10.50,-31.20,29.1
2000/01/01 00:18:36.49,IMU,-73.73,-42.48,-970.21,-0.59,-0.85,1.56,-14.55,10.05,-28.80,29.4
2000/01/01 00:18:36.59,IMU,-62.50,-58.11,-974.61,-0.18,-0.02,-0.63,-16.20,10.35,-29.70,29.4
2000/01/01 00:18:36.69,IMU,-63.96,-39.55,-966.31,-0.06,-0.15,0.20,-14.25,11.55,-29.55,29.0
2000/01/01 00:18:36.79,IMU,-72.75,-51.76,-973.63,-0.81,-0.46,-0.96,-15.45,11.10,-30.30,29.1
2000/01/01 00:18:36.89,IMU,-66.41,-36.13,-975.59,-1.11,-1.01,-0.03,-17.10,8.25,-27.30,29.0
2000/01/01 00:18:37.00,IMU,-63.48,-43.46,-983.89,-1.50,-0.40,0.42,-16.05,9.30,-29.85,29.1
2000/01/01 00:18:37.10,IMU,-62.01,-51.76,-973.63,0.02,-2.36,1.22,-16.35,10.05,-29.55,29.1
2000/01/01 00:18:37.20,IMU,-65.43,-40.53,-978.52,1.13,1.52,0.31,-15.15,9.90,-29.25,29.0
2000/01/01 00:18:37.30,IMU,-67.38,-50.29,-976.56,-0.36,-1.06,0.97,-15.15,10.65,-29.25,29.1
2000/01/01 00:18:37.40,IMU,-78.12,-36.62,-960.45,-0.52,-0.35,2.47,-13.95,11.10,-30.75,29.0
2000/01/01 00:18:37.50,IMU,-67.87,-41.99,-965.82,-0.95,-1.68,0.17,-13.65,11.10,-30.30,29.1
2000/01/01 00:18:37.60,IMU,-72.75,-52.73,-968.26,-1.83,3.26,0.99,-15.15,8.85,-28.20,29.1
2000/01/01 00:18:37.70,IMU,-75.68,-39.55,-969.24,-1.10,0.37,-0.28,-15.30,10.50,-30.15,29.0
2000/01/01 00:18:37.80,IMU,-71.29,-49.80,-976.07,-0.81,-1.47,-0.15,-15.75,10.35,-31.05,28.9
2000/01/01 00:18:37.90,IMU,-65.92,-41.02,-963.38,-1.07,-0.23,2.11,-18.15,6.45,-25.65,29.1
2000/01/01 00:18:38.00,IMU,-56.64,-41.99,-975.59,-0.31,-1.85,1.99,-16.05,11.25,-29.55,29.0
2000/01/01 00:18:38.10,IMU,-67.87,-40.53,-971.19,-1.22,1.14,1.21,-16.35,10.05,-30.15,29.4
2000/01/01 00:18:38.20,IMU,-72.75,-40.04,-973.63,-1.26,-2.96,3.54,-15.15,10.35,-29.25,29.1
2000/01/01 00:18:38.30,IMU,-55.18,-46.39,-969.24,-0.79,-3.47,-1.51,-15.60,11.25,-29.85,29.0
2000/01/01 00:18:38.40,IMU,-67.87,-37.60,-975.10,-0.85,1.29,-1.59,-15.30,11.25,-30.15,28.9
2000/01/01 00:18:38.50,IMU,-85.45,-48.83,-971.68,-0.39,-1.04,-5.15,-15.45,11.40,-30.30,29.1
2000/01/01 00:18:38.61,IMU,-69.34,-43.46,-965.82,-1.73,-1.55,0.83,-15.30,11.25,-29.55,29.1
2000/01/01 00:18:38.71,IMU,-62.99,-42.48,-969.24,-0.15,-2.19,-1.89,-16.20,9.60,-29.70,29.1
2000/01/01 00:18:38.81,IMU,-51.27,-44.92,-964.36,0.83,-1.18,0.60,-15.15,11.10,-29.25,29.1
2000/01/01 00:18:38.92,IMU,-68.36,-44.92,-960.45,-1.88,-2.21,2.16,-15.15,11.85,-30.75,29.0
2000/01/01 00:18:39.02,IMU,-59.57,-48.83,-968.26,-0.84,1.40,2.15,-16.35,11.55,-29.55,29.1
2000/01/01 00:18:39.12,IMU,-62.01,-32.71,-970.70,0.14,0.38,1.76,-16.20,11.10,-29.70,29.0
2000/01/01 00:18:39.22,IMU,-69.34,-44.43,-978.52,-0.76,-3.02,-0.60,-16.20,10.65,-29.70,29.1
2000/01/01 00:18:39.32,IMU,-61.04,-57.13,-961.91,-0.74,-0.78,1.92,-14.85,11.55,-30.15,29.1
2000/01/01 00:18:39.42,IMU,-64.94,-44.92,-965.82,-0.79,-0.37,1.49,-16.20,9.15,-29.25,28.9
2000/01/01 00:18:39.52,IMU,-62.99,-44.92,-968.26,1.36,-0.44,0.13,-15.15,11.10,-30.00,29.5
2000/01/01 00:18:39.62,IMU,-72.75,-42.97,-968.75,0.21,-0.69,0.11,-15.60,11.55,-29.85,29.1
2000/01/01 00:18:39.72,IMU,-71.29,-42.97,-972.17,0.18,-3.15,-2.02,-15.45,10.65,-29.70,29.0
2000/01/01 00:18:39.82,IMU,-59.57,-36.13,-970.70,-0.13,-2.75,0.26,-16.20,11.10,-30.75,29.2
2000/01/01 00:18:39.92,IMU,-70.31,-47.36,-965.82,0.99,0.50,-0.11,-15.15,9.90,-30.00,29.4
2000/01/01 00:18:40.02,IMU,-56.64,-47.85,-969.24,0.27,1.08,-1.47,-14.40,9.90,-30.00,29.2
2000/01/01 00:18:40.12,IMU,-78.61,-49.80,-969.24,-1.23,0.82,1.11,-15.15,11.10,-30.75,29.1
2000/01/01 00:18:40.22,IMU,-55.66,-40.53,-969.24,-1.02,-0.63,-0.21,-15.15,9.90,-30.00,28.9
2000/01/01 00:18:40.33,IMU,-56.64,-35.16,-976.56,-0.10,-2.02,-0.18,-15.15,9.90,-30.30,29.1
2000/01/01 00:18:40.43,IMU,-73.24,-54.20,-972.17,-1.54,1.76,0.74,-15.30,10.80,-29.10,29.2
2000/01/01 00:18:40.53,IMU,-73.24,-48.83,-964.84,0.45,-1.25,0.14,-15.15,9.90,-30.75,29.1
2000/01/01 00:18:40.63,IMU,-51.27,-35.16,-968.26,-2.64,-0.44,3.27,-14.25,10.80,-29.55,29.1
2000/01/01 00:18:40.73,IMU,-57.62,-48.34,-978.52,-1.94,0.03,-1.69,-14.40,9.90,-30.75,29.1
2000/01/01 00:18:40.83,IMU,-70.80,-33.69,-963.87,-0.17,0.74,1.73,-16.05,10.50,-29.55,28.9
2000/01/01 00:18:40.93,IMU,-64.45,-47.85,-961.43,-1.72,-0.86,1.52,-15.60,10.05,-29.85,29.0
2000/01/01 00:18:41.03,IMU,-71.78,-33.69,-969.24,-1.05,1.15,-2.06,-14.85,9.00,-30.60,29.1
2000/01/01 00:18:41.13,IMU,-56.64,-33.69,-965.82,-0.89,-3.05,-1.10,-13.35,10.35,-29.70,29.1
2000/01/01 00:18:41.23,IMU,-60.55,-53.22,-973.14,-1.46,-0.26,-1.11,-15.45,11.10,-30.00,29.1
2000/01/01 00:18:41.33,IMU,-66.41,-46.88,-966.31,0.18,-2.45,-0.01,-14.40,11.40,-30.00,28.8
2000/01/01 00:18:41.43,IMU,-55.66,-42.97,-973.14,0.19,-1.18,0.68,-15.45,11.10,-29.25,29.1
2000/01/01 00:18:41.53,IMU,-74.71,-45.41,-970.70,0.24,-1.60,1.57,-15.15,11.40,-29.70,29.1
2000/01/01 00:18:41.63,IMU,-81.54,-53.22,-971.68,-2.00,-0.08,0.85,-15.30,10.80,-30.15,28.9
2000/01/01 00:18:41.73,IMU,-69.34,-42.48,-979.00,-1.26,-2.09,2.31,-14.25,10.50,-28.35,29.1
2000/01/01 00:18:41.84,IMU,-66.89,-44.92,-970.70,0.66,-1.06,0.37,-15.30,9.75,-29.55,28.7
2000/01/01 00:18:41.94,IMU,-62.99,-44.43,-988.28,-0.19,-0.32,2.34,-15.15,8.85,-30.30,28.9
2000/01/01 00:18:42.04,IMU,-69.34,-45.90,-982.42,-0.15,-1.05,1.47,-14.55,9.75,-30.60,29.0
2000/01/01 00:18:42.14,IMU,-65.92,-44.43,-968.26,-1.38,-0.89,0.86,-14.85,11.25,-29.85,29.1
2000/01/01 00:18:42.24,IMU,-53.22,-38.09,-973.14,-1.08,-0.09,0.88,-14.25,10.80,-29.55,29.1
2000/01/01 00:18:42.34,IMU,-64.45,-48.83,-967.77,-0.89,-0.04,-0.92,-15.15,11.10,-29.70,29.1
2000/01/01 00:18:42.44,IMU,-68.85,-46.39,-978.52,-0.24,-0.30,0.44,-15.45,11.40,-30.75,28.9
2000/01/01 00:18:42.54,IMU,-82.03,-33.69,-968.26,1.04,-2.70,2.33,-14.85,11.25,-29.85,29.1
2000/01/01 00:18:42.64,IMU,-53.22,-44.92,-973.14,-1.21,-0.81,-0.07,-15.60,11.55,-29.85,29.1
2000/01/01 00:18:42.74,IMU,-61.04,-51.76,-969.24,-0.50,0.68,0.85,-15.15,9.60,-29.25,29.0
2000/01/01 00:18:42.84,IMU,-69.34,-41.02,-975.10,-0.77,-0.79,-0.54,-16.05,10.05,-29.55,28.9
2000/01/01 00:18:42.94,IMU,-62.99,-45.41,-975.59,-2.34,-2.00,-0.44,-15.30,10.80,-29.10,28.9
2000/01/01 00:18:43.04,IMU,-67.38,-38.09,-983.40,-1.02,-0.59,2.20,-14.55,10.05,-29.85,29.1
2000/01/01 00:18:43.14,IMU,-64.45,-41.02,-963.87,-0.79,-0.16,0.66,-15.30,9.75,-29.55,28.7
2000/01/01 00:18:43.25,IMU,-64.94,-39.06,-964.84,-0.73,0.23,-1.16,-15.30,10.05,-29.55,29.1
2000/01/01 00:18:43.35,IMU,-72.27,-45.90,-976.07,0.44,-1.71,0.73,-15.15,10.65,-30.00,29.0
2000/01/01 00:18:43.45,IMU,-76.17,-49.80,-969.73,-2.87,-0.70,0.92,-13.80,9.75,-30.60,29.2
2000/01/01 00:18:43.55,IMU,-66.89,-41.50,-972.66,-0.50,-0.21,2.40,-14.70,11.85,-30.00,28.9
2000/01/01 00:18:43.65,IMU,-71.78,-47.85,-976.56,0.81,-1.18,0.32,-14.55,10.05,-30.60,29.2
2000/01/01 00:18:43.75,IMU,-69.82,-30.27,-964.36,-1.39,-0.42,-3.87,-15.15,10.35,-31.35,29.0
2000/01/01 00:18:43.85,IMU,-64.45,-46.88,-966.80,-0.98,-1.48,-0.15,-13.65,11.40,-30.30,29.1
2000/01/01 00:18:43.95,IMU,-75.68,-47.36,-958.98,-1.10,-0.66,-0.79,-14.70,9.90,-30.00,28.9
2000/01/01 00:18:44.05,IMU,-67.38,-54.69,-974.61,-1.24,2.64,1.84,-15.15,11.40,-30.30,29.1
2000/01/01 00:18:44.15,IMU,-75.68,-56.64,-954.10,-1.89,0.36,0.61,-15.60,10.05,-29.85,29.1
2000/01/01 00:18:44.25,IMU,-56.15,-38.09,-969.24,0.66,-0.88,0.93,-14.40,10.65,-29.70,29.1
2000/01/01 00:18:44.35,IMU,-59.08,-42.48,-966.80,1.95,-1.43,-1.35,-15.30,10.50,-31.20,29.2
2000/01/01 00:18:44.45,IMU,-66.41,-51.27,-967.29,-1.80,0.05,-1.28,-14.85,10.50,-29.55,29.0
2000/01/01 00:18:44.55,IMU,-76.17,-57.62,-961.43,0.31,-0.84,1.98,-16.05,10.50,-30.60,28.8
2000/01/01 00:18:44.65,IMU,-67.38,-47.36,-972.17,-1.34,0.27,-0.94,-14.70,10.35,-29.70,29.1
2000/01/01 00:18:44.76,IMU,-67.38,-38.57,-972.17,0.07,0.65,0.00,-14.85,9.75,-29.85,29.2
2000/01/01 00:18:44.86,IMU,-68.36,-44.92,-979.49,-1.24,-1.62,2.87,-14.70,10.65,-30.30,29.1
2000/01/01 00:18:44.96,IMU,-59.57,-39.55,-977.05,0.77,-0.50,-0.21,-14.55,10.05,-30.60,28.9
2000/01/01 00:18:45.06,IMU,-62.99,-45.41,-973.14,-1.69,0.59,-1.27,-17.40,10.05,-27.00,29.0
2000/01/01 00:18:45.16,IMU,-67.38,-47.36,-968.26,0.11,-1.65,0.19,-15.15,11.40,-29.25,29.1
2000/01/01 00:18:45.26,IMU,-69.82,-39.55,-965.82,-2.73,-2.51,0.00,-16.35,10.05,-29.85,29.3
2000/01/01 00:18:45.36,IMU,-67.87,-34.18,-961.91,0.30,-0.50,-2.40,-15.60,10.80,-30.60,29.2
2000/01/01 00:18:45.46,IMU,-61.04,-48.83,-971.68,-1.90,-3.21,1.69,-14.55,10.05,-29.85,29.1
2000/01/01 00:18:45.56,IMU,-81.05,-48.83,-968.75,0.02,-0.91,-1.68,-14.55,12.00,-28.80,29.1
2000/01/01 00:18:45.66,IMU,-72.75,-48.83,-971.68,-0.89,0.91,-0.34,-13.95,9.90,-30.75,28.7
2000/01/01 00:18:45.76,IMU,-64.94,-42.97,-965.82,-1.90,0.06,1.50,-15.30,10.80,-29.85,29.0
2000/01/01 00:18:45.86,IMU,-68.85,-52.25,-968.75,-2.71,0.58,-1.20,-14.40,10.35,-31.35,29.1
2000/01/01 00:18:45.96,IMU,-73.73,-49.80,-965.82,0.20,1.85,2.34,-15.15,10.65,-30.30,29.1
2000/01/01 00:18:46.06,IMU,-74.22,-44.43,-971.68,-0.72,0.54,1.73,-16.95,9.15,-25.05,29.3
2000/01/01 00:18:46.16,IMU,-69.82,-39.55,-965.33,0.20,-1.27,1.50,-13.65,11.10,-31.35,28.9
2000/01/01 00:18:46.27,IMU,-62.50,-49.32,-979.98,-0.56,0.11,-1.26,-15.15,10.35,-30.75,29.1
2000/01/01 00:18:46.37,IMU,-71.78,-46.88,-965.82,-0.69,1.44,-1.45,-15.45,9.60,-30.75,29.1
2000/01/01 00:18:46.47,IMU,-65.92,-46.88,-959.96,-2.05,1.05,-0.39,-15.60,11.25,-31.20,29.1
2000/01/01 00:18:46.57,IMU,-59.57,-54.20,-980.96,-0.55,-1.60,-1.36,-14.25,10.50,-30.15,29.1
2000/01/01 00:18:46.67,IMU,-64.94,-48.83,-969.73,-1.66,0.03,3.83,-17.40,11.25,-29.55,29.1
2000/01/01 00:18:46.77,IMU,-64.45,-42.48,-971.68,-1.53,-2.02,-0.33,-13.65,10.65,-29.70,29.0
2000/01/01 00:18:46.87,IMU,-60.06,-44.43,-969.73,-1.21,-3.05,2.87,-15.60,10.05,-29.85,29.1
2000/01/01 00:18:46.97,IMU,-66.89,-37.60,-968.26,-0.56,-1.91,-0.82,-14.70,11.10,-30.75,29.1
2000/01/01 00:18:47.08,IMU,-67.87,-53.22,-966.80,0.10,0.73,0.57,-16.95,7.65,-25.80,29.1
2000/01/01 00:18:47.18,IMU,-62.01,-44.92,-969.73,-2.51,-0.68,-4.33,-15.15,11.40,-31.05,29.0
2000/01/01 00:18:47.28,IMU,-65.43,-45.41,-959.47,0.27,-2.23,1.08,-14.70,11.10,-29.70,29.1
2000/01/01 00:18:47.38,IMU,-78.12,-44.92,-963.38,0.03,1.00,0.97,-12.90,11.10,-31.05,29.0
2000/01/01 00:18:47.48,IMU,-58.11,-45.90,-962.40,-2.02,0.69,0.31,-16.20,10.65,-29.70,29.0
2000/01/01 00:18:47.58,IMU,-62.99,-57.13,-979.00,0.21,-2.19,2.11,-14.85,10.05,-28.35,28.8
2000/01/01 00:18:47.68,IMU,-63.48,-41.50,-972.17,-0.04,-1.60,2.46,-15.75,10.65,-31.05,29.0
2000/01/01 00:18:47.78,IMU,-66.89,-46.39,-978.03,-1.30,-0.26,-0.89,-14.70,10.65,-28.95,29.0
2000/01/01 00:18:47.88,IMU,-68.85,-47.85,-966.31,-1.08,-2.27,-3.88,-14.70,10.65,-30.75,29.1
2000/01/01 00:18:47.98,IMU,-62.50,-46.39,-967.77,-2.99,-1.49,1.65,-16.20,10.65,-30.00,29.2
2000/01/01 00:18:48.08,IMU,-60.06,-44.92,-966.80,-0.79,0.27,1.41,-15.60,10.05,-29.10,28.8
2000/01/01 00:18:48.19,IMU,-77.15,-40.53,-966.80,-1.04,-1.75,-0.78,-14.40,9.90,-30.00,29.0
2000/01/01 00:18:48.29,IMU,-59.57,-38.57,-977.05,-1.40,1.37,1.72,-15.60,11.25,-29.10,28.7
2000/01/01 00:18:48.39,IMU,-68.85,-44.92,-972.17,0.29,-2.98,2.24,-15.15,11.40,-30.75,29.0
2000/01/01 00:18:48.49,IMU,-73.73,-39.55,-960.94,-1.47,-1.72,0.04,-15.60,10.05,-29.85,29.1
2000/01/01 00:18:48.59,IMU,-71.29,-54.20,-979.49,-1.84,1.31,1.34,-15.15,11.85,-29.70,29.0
2000/01/01 00:18:48.69,IMU,-65.43,-46.39,-962.89,-1.83,1.37,0.84,-15.45,9.60,-29.70,28.7
2000/01/01 00:18:48.79,IMU,-65.43,-37.11,-973.14,-1.69,-0.44,0.56,-15.60,11.55,-30.15,29.1
2000/01/01 00:18:48.89,IMU,-61.04,-50.29,-976.07,-0.54,0.14,-2.56,-15.60,11.25,-29.85,29.0
2000/01/01 00:18:48.99,IMU,-60.55,-45.90,-956.54,0.25,-2.17,1.65,-14.55,11.55,-29.85,29.0
2000/01/01 00:18:49.09,IMU,-79.59,-41.50,-981.45,-0.66,1.16,-4.92,-14.25,9.75,-30.15,28.9
2000/01/01 00:18:49.19,IMU,-64.94,-45.41,-958.01,-3.19,-0.26,0.40,-13.80,10.05,-29.55,29.1
2000/01/01 00:18:49.29,IMU,-64.94,-45.90,-967.77,-1.97,-3.47,-1.66,-15.75,10.65,-30.75,29.1
2000/01/01 00:18:49.39,IMU,-74.22,-37.60,-966.80,-0.89,-1.67,-1.63,-14.70,11.10,-29.70,28.9
2000/01/01 00:18:49.49,IMU,-71.29,-55.18,-972.17,0.62,-2.00,1.90,-15.30,11.25,-29.55,29.1
2000/01/01 00:18:49.59,IMU,-69.34,-43.46,-970.70,-0.43,0.29,-0.37,-15.30,10.50,-29.85,29.1
2000/01/01 00:18:49.70,IMU,-64.94,-45.90,-965.33,0.05,-1.37,2.18,-14.55,9.75,-29.55,29.0
2000/01/01 00:18:49.80,IMU,-67.87,-41.99,-975.59,-0.81,-0.82,1.56,-14.55,10.05,-30.15,28.7
2000/01/01 00:18:49.90,IMU,-61.04,-44.43,-972.17,-0.76,1.11,-0.21,-14.70,9.90,-28.95,29.1
2000/01/01 00:18:50.00,IMU,-55.66,-53.71,-973.63,-1.26,0.49,0.45,-14.85,9.75,-29.55,29.3
2000/01/01 00:18:50.10,IMU,-62.01,-46.88,-963.87,-2.22,-1.88,-0.85,-15.45,9.60,-29.70,29.0
2000/01/01 00:18:50.20,IMU,-68.85,-38.09,-969.73,-1.56,-1.45,1.59,-15.15,9.90,-29.25,29.1
2000/01/01 00:18:50.30,IMU,-70.31,-46.88,-973.14,-1.92,-1.95,1.26,-13.95,8.85,-30.00,29.1
2000/01/01 00:18:50.40,IMU,-53.71,-52.25,-975.59,-0.95,-0.37,-0.43,-15.15,11.10,-30.30,29.1
2000/01/01 00:18:50.50,IMU,-67.38,-39.06,-972.66,-0.53,-2.25,-0.36,-14.55,9.30,-30.60,29.0
2000/01/01 00:18:50.60,IMU,-71.29,-34.67,-963.38,-1.77,-1.41,1.61,-15.60,10.80,-30.90,29.1
2000/01/01 00:18:50.70,IMU,-75.20,-45.90,-975.59,-1.45,-0.69,-0.79,-13.65,9.90,-29.70,28.9
2000/01/01 00:18:50.80,IMU,-54.20,-43.95,-967.77,1.64,2.79,-0.21,-16.50,10.35,-30.00,29.1
2000/01/01 00:18:50.90,IMU,-57.13,-51.76,-970.70,1.32,-0.47,0.68,-15.45,10.65,-31.35,29.1
2000/01/01 00:18:51.00,IMU,-64.45,-49.80,-958.01,0.72,-1.70,1.70,-15.75,11.40,-29.70,29.0
2000/01/01 00:18:51.10,IMU,-75.20,-43.46,-965.82,0.24,-0.73,-0.42,-14.40,10.65,-30.30,29.0
2000/01/01 00:18:51.21,IMU,-58.59,-28.81,-967.77,-1.03,-1.29,0.86,-15.30,10.80,-29.85,29.1
2000/01/01 00:18:51.31,IMU,-61.04,-49.80,-960.94,-0.95,-0.47,-0.47,-15.15,9.90,-30.00,29.0
2000/01/01 00:18:51.41,IMU,-63.48,-46.39,-963.38,-0.93,0.13,2.41,-13.95,10.65,-28.65,28.9
2000/01/01 00:18:51.51,IMU,-68.85,-53.71,-971.19,-0.53,-2.20,-1.61,-16.05,10.50,-30.15,29.2
2000/01/01 00:18:51.61,IMU,-62.99,-32.23,-964.84,-1.30,1.68,1.92,-15.30,10.80,-31.20,28.9
2000/01/01 00:18:51.71,IMU,-62.01,-51.76,-970.21,-3.00,-1.69,-0.05,-16.20,10.65,-29.25,29.2
2000/01/01 00:18:51.81,IMU,-71.29,-41.99,-971.68,-2.66,-0.40,-0.76,-14.55,9.75,-30.15,29.0
2000/01/01 00:18:51.91,IMU,-70.80,-45.41,-965.33,-2.41,-0.63,-1.69,-13.95,9.60,-30.30,28.7
2000/01/01 00:18:52.01,IMU,-69.82,-36.62,-977.54,-1.03,-0.79,1.44,-14.70,10.35,-28.95,29.0
2000/01/01 00:18:52.11,IMU,-72.27,-39.55,-961.91,-1.21,-3.34,0.66,-14.85,10.50,-30.90,29.0
2000/01/01 00:18:52.21,IMU,-68.36,-47.85,-974.61,-1.30,-2.34,2.47,-16.35,11.25,-29.55,29.0
2000/01/01 00:18:52.31,IMU,-71.78,-40.53,-967.77,1.67,0.35,0.27,-15.45,11.10,-30.00,29.0
2000/01/01 00:18:52.41,IMU,-66.89,-55.66,-967.77,0.48,-1.00,-0.31,-14.85,10.05,-29.55,28.9
2000/01/01 00:18:52.51,IMU,-65.92,-46.88,-974.61,0.18,0.27,-2.26,-15.45,9.90,-30.75,28.9
2000/01/01 00:18:52.62,IMU,-69.34,-42.97,-980.96,0.96,1.27,1.93,-15.30,9.00,-30.60,29.1
2000/01/01 00:18:52.72,IMU,-68.85,-49.80,-972.17,-0.36,-0.40,-2.05,-14.85,10.80,-29.85,29.3
2000/01/01 00:18:52.82,IMU,-64.94,-46.88,-974.12,-2.95,-2.11,-3.45,-14.40,9.15,-29.70,29.2
2000/01/01 00:18:52.92,IMU,-61.04,-46.39,-969.73,-1.32,-1.06,2.74,-15.15,10.35,-30.30,29.1
2000/01/01 00:18:53.02,IMU,-67.87,-36.62,-972.66,-1.42,1.00,0.26,-15.60,9.75,-27.30,29.0
2000/01/01 00:18:53.12,IMU,-60.55,-39.06,-968.75,-0.76,0.85,1.10,-14.85,11.25,-29.55,29.1
2000/01/01 00:18:53.22,IMU,-66.41,-47.36,-954.59,-0.34,-0.44,2.46,-18.45,7.20,-25.65,29.1
2000/01/01 00:18:53.32,IMU,-63.48,-56.15,-967.29,-1.20,-1.82,0.21,-16.20,11.10,-31.05,29.1
2000/01/01 00:18:53.42,IMU,-63.48,-38.57,-962.89,-0.84,-0.31,-1.28,-15.15,11.10,-29.70,29.1
2000/01/01 00:18:53.52,IMU,-78.61,-49.32,-967.77,-0.83,-0.79,-0.42,-16.20,9.60,-27.90,28.8
2000/01/01 00:18:53.62,IMU,-77.64,-46.88,-970.21,-1.24,0.00,1.82,-16.05,10.05,-30.15,29.1
2000/01/01 00:18:53.72,IMU,-74.22,-53.71,-971.68,-1.55,-4.66,-0.24,-14.25,11.55,-31.65,29.2
2000/01/01 00:18:53.82,IMU,-59.57,-44.43,-969.73,-1.29,0.13,1.57,-16.35,9.75,-29.85,29.1
2000/01/01 00:18:53.92,IMU,-60.06,-43.95,-962.89,-1.11,0.39,-0.46,-15.30,10.50,-29.55,29.0
2000/01/01 00:18:54.02,IMU,-61.52,-49.80,-967.77,0.24,-3.94,0.82,-15.45,10.35,-29.25,29.4
2000/01/01 00:18:54.12,IMU,-68.85,-41.02,-958.50,-1.85,-0.38,-0.81,-14.85,9.75,-31.20,29.0
2000/01/01 00:18:54.24,IMU,-68.36,-43.46,-971.19,-1.15,1.92,1.95,-19.95,9.00,-23.85,28.7
2000/01/01 00:18:54.34,IMU,-63.48,-50.29,-969.73,-0.50,0.25,3.74,-14.70,11.10,-30.30,28.9
2000/01/01 00:18:54.44,IMU,-62.99,-39.55,-963.38,-1.04,-0.50,-0.17,-14.55,10.05,-30.60,29.1
2000/01/01 00:18:54.54,IMU,-62.50,-56.15,-970.70,-1.06,1.01,-1.60,-15.75,10.65,-29.70,29.1
2000/01/01 00:18:54.64,IMU,-64.45,-39.06,-963.87,-3.24,-0.02,0.63,-15.15,10.35,-29.70,28.9
2000/01/01 00:18:54.74,IMU,-68.85,-37.11,-966.80,-0.69,-1.65,0.63,-14.40,11.85,-29.25,29.1
2000/01/01 00:18:54.84,IMU,-79.10,-37.11,-966.31,-0.21,-0.41,-2.45,-13.95,10.35,-30.75,28.9
2000/01/01 00:18:54.94,IMU,-69.34,-43.46,-968.26,-0.82,-3.10,-1.50,-15.30,10.05,-30.15,29.0
2000/01/01 00:18:55.04,IMU,-70.80,-38.57,-975.10,-0.33,-2.36,-1.45,-15.60,9.30,-28.80,28.9
2000/01/01 00:18:55.14,IMU,-74.22,-41.02,-973.63,-1.36,-0.78,-0.52,-15.60,11.25,-29.55,28.9
2000/01/01 00:18:55.24,IMU,-70.80,-58.59,-968.26,0.92,-0.43,2.53,-14.85,9.00,-30.15,28.7
2000/01/01 00:18:55.34,IMU,-62.01,-46.88,-972.17,-2.83,0.50,-1.55,-14.70,11.10,-30.00,28.7
2000/01/01 00:18:55.44,IMU,-69.82,-44.43,-960.45,-1.10,-0.95,0.83,-16.35,10.05,-29.55,28.9
2000/01/01 00:18:55.54,IMU,-52.73,-37.60,-967.29,0.19,-1.27,-0.14,-14.85,12.00,-30.15,29.1
2000/01/01 00:18:55.65,IMU,-67.38,-45.41,-954.10,-1.04,0.53,0.11,-15.45,11.10,-29.25,29.1
2000/01/01 00:18:55.75,IMU,-72.75,-44.92,-969.24,-0.70,0.14,0.95,-15.60,10.50,-29.85,29.1
2000/01/01 00:18:55.85,IMU,-72.75,-45.90,-968.26,-1.65,-1.13,-1.08,-13.95,12.15,-29.70,29.1
2000/01/01 00:18:55.95,IMU,-77.64,-28.81,-971.68,-0.53,-2.66,0.88,-14.55,10.05,-29.10,29.1
2000/01/01 00:18:56.05,IMU,-51.27,-39.55,-961.91,-1.93,-0.36,0.30,-15.45,10.35,-29.70,28.8
2000/01/01 00:18:56.15,IMU,-75.20,-26.86,-978.03,-1.79,0.08,-2.05,-16.05,12.00,-30.90,29.0
2000/01/01 00:18:56.25,IMU,-65.43,-36.62,-969.73,-2.05,-1.94,0.80,-16.20,9.15,-31.05,29.0
2000/01/01 00:18:56.35,IMU,-63.48,-47.36,-972.17,-2.19,-1.24,0.54,-15.15,11.40,-29.70,28.9
2000/01/01 00:18:56.45,IMU,-63.48,-36.62,-971.19,-2.64,-0.18,2.14,-14.40,10.35,-29.25,29.1
2000/01/01 00:18:56.55,IMU,-60.06,-36.62,-968.26,0.82,-0.85,-1.87,-15.45,11.10,-29.70,28.9
2000/01/01 00:18:56.65,IMU,-73.73,-49.80,-961.43,-0.01,-0.92,-0.43,-16.20,11.10,-30.75,29.1
2000/01/01 00:18:56.75,IMU,-75.20,-45.90,-975.10,1.74,-0.88,2.80,-14.25,9.75,-30.60,28.8
2000/01/01 00:18:56.85,IMU,-72.27,-45.41,-981.93,-1.65,-1.65,0.61,-13.80,9.00,-29.55,28.9
2000/01/01 00:18:56.95,IMU,-63.96,-42.48,-967.29,0.34,-1.19,-2.13,-15.45,9.90,-30.00,29.1
2000/01/01 00:18:57.05,IMU,-65.92,-37.60,-962.40,-0.12,-0.09,-0.73,-14.55,11.55,-30.90,28.9
2000/01/01 00:18:57.16,IMU,-64.94,-42.48,-968.75,-0.44,-0.75,0.47,-15.75,11.40,-31.05,29.0
2000/01/01 00:18:57.26,IMU,-63.96,-33.69,-965.33,-0.92,-1.03,-1.51,-15.30,11.25,-30.15,28.8
2000/01/01 00:18:57.36,IMU,-54.20,-38.57,-968.26,-0.63,-2.38,-2.21,-16.05,10.80,-30.60,28.8
2000/01/01 00:18:57.46,IMU,-52.73,-42.48,-968.75,-1.92,0.15,1.17,-13.80,9.75,-29.10,28.9
2000/01/01 00:18:57.56,IMU,-73.24,-45.41,-968.75,-0.98,0.21,2.18,-15.75,10.35,-30.75,29.0
2000/01/01 00:18:57.66,IMU,-75.68,-43.95,-967.77,0.13,-1.44,0.16,-15.30,11.55,-30.15,29.0
2000/01/01 00:18:57.76,IMU,-62.50,-45.41,-971.19,0.08,-2.18,3.63,-14.85,10.80,-30.60,28.6
2000/01/01 00:18:57.86,IMU,-68.36,-53.71,-964.36,-0.89,-0.91,0.63,-13.05,11.25,-30.15,29.1
2000/01/01 00:18:57.96,IMU,-72.27,-42.48,-973.63,-0.75,1.11,0.85,-15.30,11.55,-30.60,29.1
2000/01/01 00:18:58.06,IMU,-70.31,-49.32,-965.82,-1.27,2.73,-0.01,-15.45,9.90,-30.75,28.9
2000/01/01 00:18:58.16,IMU,-63.48,-41.99,-965.33,-1.98,-0.79,-1.64,-16.20,10.65,-30.30,29.1
2000/01/01 00:18:58.26,IMU,-71.78,-45.90,-974.61,-1.64,1.24,0.07,-15.60,11.25,-30.15,28.8
2000/01/01 00:18:58.36,IMU,-62.99,-38.09,-969.73,-1.47,1.91,-0.37,-14.70,9.90,-29.70,28.9
2000/01/01 00:18:58.46,IMU,-58.59,-46.39,-978.03,-1.67,-0.15,-0.05,-15.45,10.65,-30.75,29.0
2000/01/01 00:18:58.56,IMU,-61.04,-41.50,-964.36,-1.51,0.79,4.66,-14.70,9.90,-29.25,29.0
2000/01/01 00:18:58.67,IMU,-69.82,-40.53,-973.63,-0.98,1.84,-2.76,-14.85,10.50,-29.85,28.9
2000/01/01 00:18:58.77,IMU,-75.68,-55.66,-971.19,-0.37,-0.53,0.66,-15.15,9.90,-29.25,29.0
2000/01/01 00:18:58.87,IMU,-65.92,-39.06,-972.17,-0.15,-0.76,1.75,-14.85,11.55,-29.55,29.1
2000/01/01 00:18:58.97,IMU,-73.73,-61.04,-969.73,-2.89,-1.18,-0.67,-15.30,11.25,-30.90,29.1
2000/01/01 00:18:59.07,IMU,-58.11,-39.06,-976.07,-3.42,-1.12,-0.56,-15.30,10.05,-29.85,28.8
2000/01/01 00:18:59.17,IMU,-68.36,-48.34,-973.63,-1.50,-1.35,0.10,-14.55,10.50,-31.65,29.1
2000/01/01 00:18:59.27,IMU,-51.27,-45.41,-968.75,-0.37,-0.17,2.87,-15.45,11.10,-29.25,29.0
2000/01/01 00:18:59.37,IMU,-73.73,-47.36,-973.63,-0.24,-0.08,-2.23,-14.85,11.55,-30.15,28.9
2000/01/01 00:18:59.47,IMU,-71.29,-33.20,-966.80,0.61,0.09,-3.01,-15.15,9.90,-29.25,29.1
2000/01/01 00:18:59.57,IMU,-56.64,-35.16,-961.43,-2.49,-1.00,-0.58,-13.95,11.40,-30.75,29.0
2000/01/01 00:18:59.67,IMU,-74.22,-37.60,-962.40,0.70,-1.03,-0.12,-16.20,11.10,-30.00,29.0
2000/01/01 00:18:59.77,IMU,-70.80,-53.71,-965.33,-1.42,2.76,1.90,-15.15,11.40,-29.70,28.7
2000/01/01 00:18:59.87,IMU,-69.34,-38.09,-966.31,0.34,1.67,0.74,-13.95,11.10,-29.25,29.1
2000/01/01 00:18:59.97,IMU,-66.41,-55.66,-958.98,0.85,0.88,-1.18,-15.75,11.40,-31.05,29.0
2000/01/01 00:19:00.08,IMU,-89.84,-45.90,-964.84,-1.43,0.45,1.89,-13.95,10.35,-30.30,29.1
2000/01/01 00:19:00.18,IMU,-75.20,-55.66,-967.29,-1.26,-0.63,-1.22,-15.60,10.05,-29.10,29.1
2000/01/01 00:19:00.28,IMU,-62.01,-50.78,-973.63,-1.87,-0.02,-0.25,-15.15,11.10,-30.00,28.8
2000/01/01 00:19:00.38,IMU,-62.50,-39.06,-966.80,-1.40,0.18,1.44,-17.55,12.90,-29.25,28.8
2000/01/01 00:19:00.48,IMU,-59.57,-34.67,-973.63,0.44,-0.43,2.31,-15.75,10.65,-30.00,29.1
2000/01/01 00:19:00.58,IMU,-68.85,-45.41,-978.52,-0.95,0.27,2.50,-13.80,10.50,-29.10,29.2
2000/01/01 00:19:00.68,IMU,-64.94,-48.83,-973.14,-0.47,1.82,0.80,-14.85,10.05,-30.90,29.1
2000/01/01 00:19:00.78,IMU,-65.92,-43.46,-973.14,-0.85,2.50,-1.04,-14.85,9.75,-29.10,29.1
2000/01/01 00:19:00.88,IMU,-68.85,-46.88,-971.68,-1.01,0.02,0.32,-14.25,9.75,-29.55,29.0
2000/01/01 00:19:00.98,IMU,-65.92,-50.29,-971.19,0.33,1.04,2.05,-14.85,10.50,-29.85,29.1
2000/01/01 00:19:01.08,IMU,-71.29,-34.18,-970.70,-0.21,0.79,0.96,-15.30,10.50,-29.10,29.1
2000/01/01 00:19:01.18,IMU,-61.04,-49.80,-976.56,-0.69,-0.26,-4.08,-16.50,11.10,-30.75,29.0
2000/01/01 00:19:01.28,IMU,-56.64,-51.76,-972.17,-1.34,0.58,0.98,-15.15,11.10,-30.75,29.1
2000/01/01 00:19:01.38,IMU,-57.62,-43.46,-966.31,-0.60,-1.33,-0.27,-17.55,8.10,-26.40,28.7
2000/01/01 00:19:01.48,IMU,-65.43,-42.48,-966.80,-0.08,-1.71,0.76,-14.85,11.25,-29.55,28.9
2000/01/01 00:19:01.58,IMU,-64.94,-45.41,-971.68,-0.31,0.96,-0.65,-14.40,11.85,-29.70,29.1
2000/01/01 00:19:01.69,IMU,-80.57,-33.20,-972.66,-0.05,-1.01,1.76,-15.60,10.05,-30.90,29.0
2000/01/01 00:19:01.79,IMU,-59.57,-56.15,-966.80,0.27,-2.54,-1.37,-16.05,11.55,-30.15,29.0
2000/01/01 00:19:01.89,IMU,-67.38,-52.25,-963.38,-1.63,-1.73,-0.45,-15.30,10.80,-29.10,28.9
2000/01/01 00:19:01.99,IMU,-72.75,-42.48,-954.10,-1.87,0.49,1.33,-15.45,9.90,-30.75,28.8
2000/01/01 00:19:02.09,IMU,-68.85,-48.34,-969.73,-1.89,0.31,-0.14,-14.70,9.15,-31.35,29.1
2000/01/01 00:19:02.19,IMU,-76.17,-37.60,-967.29,-0.15,-0.53,-0.42,-15.45,11.10,-30.30,29.1
2000/01/01 00:19:02.29,IMU,-79.59,-38.57,-980.96,-2.42,1.32,-0.21,-14.40,10.35,-29.70,28.7
2000/01/01 00:19:02.39,IMU,-54.20,-40.53,-969.24,-0.40,0.46,2.20,-16.20,7.65,-27.15,29.0
2000/01/01 00:19:02.50,IMU,-55.66,-41.99,-972.66,-1.96,1.08,1.95,-16.05,11.55,-29.55,28.6
2000/01/01 00:19:02.60,IMU,-70.31,-39.55,-971.19,-3.37,0.92,-0.53,-15.60,11.55,-30.60,28.9
2000/01/01 00:19:02.70,IMU,-60.06,-47.85,-977.54,1.03,-0.48,0.00,-13.65,11.10,-29.25,28.9
2000/01/01 00:19:02.80,IMU,-70.80,-48.83,-966.80,-2.44,-0.97,2.12,-15.60,9.00,-30.15,29.1
2000/01/01 00:19:02.90,IMU,-71.29,-54.69,-952.64,-2.02,-0.73,3.90,-15.30,10.05,-30.60,28.7
2000/01/01 00:19:03.00,IMU,-70.80,-41.02,-978.52,0.11,1.51,1.02,-15.45,11.10,-30.30,28.8
2000/01/01 00:19:03.10,IMU,-65.43,-53.22,-963.38,0.69,0.62,2.44,-14.70,9.60,-30.75,29.0
2000/01/01 00:19:03.20,IMU,-64.94,-42.48,-977.05,-0.93,-1.00,2.04,-15.75,10.65,-30.00,29.0
2000/01/01 00:19:03.30,IMU,-59.57,-45.90,-973.63,-0.53,-0.96,-1.93,-15.30,10.05,-29.85,28.9
2000/01/01 00:19:03.40,IMU,-58.59,-52.73,-972.66,-0.52,-0.86,0.35,-15.30,10.50,-29.85,29.0
2000/01/01 00:19:03.50,IMU,-65.43,-52.25,-970.70,-0.45,-0.79,-1.85,-16.35,10.50,-29.10,28.9
2000/01/01 00:19:03.60,IMU,-81.05,-48.34,-971.68,-1.27,0.51,-1.65,-14.85,11.25,-29.85,28.6
2000/01/01 00:19:03.70,IMU,-57.62,-43.95,-966.31,-1.11,-2.50,0.54,-15.75,10.65,-29.70,28.8
2000/01/01 00:19:03.80,IMU,-56.64,-51.76,-971.68,-0.61,1.12,-0.80,-14.25,9.30,-29.55,29.0
2000/01/01 00:19:03.90,IMU,-70.31,-39.55,-964.84,-1.82,-2.10,3.42,-15.30,10.80,-30.15,29.1
2000/01/01 00:19:04.01,IMU,-67.87,-36.62,-965.82,-1.64,0.76,-0.92,-14.70,9.90,-30.75,29.0
2000/01/01 00:19:04.11,IMU,-57.13,-43.95,-971.19,-1.12,-1.77,-0.42,-14.70,11.10,-30.75,28.8
2000/01/01 00:19:04.21,IMU,-70.31,-34.18,-974.12,-1.20,0.02,-0.92,-15.45,10.65,-30.75,29.1
2000/01/01 00:19:04.31,IMU,-61.04,-51.76,-963.87,-0.01,-0.29,-0.40,-14.85,10.80,-30.15,29.1
2000/01/01 00:19:04.41,IMU,-77.15,-48.83,-962.40,-0.86,-0.89,0.95,-15.60,9.00,-30.60,28.9
2000/01/01 00:19:04.51,IMU,-70.31,-38.57,-980.96,-1.31,-0.14,0.30,-16.05,11.25,-30.15,28.9
2000/01/01 00:19:04.61,IMU,-61.52,-41.50,-963.87,0.38,-0.05,-1.53,-15.75,11.85,-30.30,29.0
2000/01/01 00:19:04.71,IMU,-58.11,-53.71,-977.05,-0.70,0.55,1.42,-15.60,10.50,-28.35,29.0
2000/01/01 00:19:04.81,IMU,-71.78,-38.57,-970.70,-1.47,0.08,1.93,-14.55,9.75,-29.85,29.1
2000/01/01 00:19:04.91,IMU,-77.15,-41.02,-973.14,0.18,-2.82,-1.47,-14.70,11.10,-31.05,29.1
2000/01/01 00:19:05.01,IMU,-54.69,-51.76,-965.82,-1.89,-1.13,3.22,-14.85,12.00,-29.85,28.8
2000/01/01 00:19:05.11,IMU,-60.55,-55.66,-961.43,1.09,0.66,2.60,-15.15,11.10,-28.95,29.1
2000/01/01 00:19:05.21,IMU,-59.08,-46.88,-971.68,0.38,1.09,-1.55,-14.40,9.90,-29.70,29.0
2000/01/01 00:19:05.31,IMU,-65.92,-51.27,-972.66,-0.50,0.66,2.21,-15.30,12.30,-29.55,29.1
2000/01/01 00:19:05.41,IMU,-53.22,-58.11,-974.61,-0.63,-0.70,-1.70,-15.15,11.85,-30.00,28.9
2000/01/01 00:19:05.52,IMU,-57.62,-60.55,-963.87,-1.83,-1.08,1.47,-14.70,10.65,-30.75,29.1
2000/01/01 00:19:05.62,IMU,-69.34,-45.41,-973.63,-1.11,1.41,0.31,-15.30,10.05,-30.60,28.7
2000/01/01 00:19:05.72,IMU,-66.89,-48.83,-958.50,-0.33,0.18,1.10,-15.75,10.65,-30.00,28.8
2000/01/01 00:19:05.82,IMU,-76.66,-46.39,-980.47,-0.52,0.71,0.75,-14.70,11.10,-28.20,29.1
2000/01/01 00:19:05.92,IMU,-74.71,-48.34,-968.26,-2.36,0.22,-0.33,-13.35,10.65,-30.30,28.8
2000/01/01 00:19:06.02,IMU,-68.85,-51.27,-970.21,-0.88,0.05,-0.76,-13.50,10.50,-30.15,28.8
2000/01/01 00:19:06.12,IMU,-64.45,-51.76,-971.68,-0.18,-0.58,-0.11,-15.60,10.05,-29.85,28.8
2000/01/01 00:19:06.22,IMU,-57.62,-41.50,-974.61,0.44,-1.02,1.64,-14.55,10.50,-31.20,29.0
2000/01/01 00:19:06.32,IMU,-55.66,-49.80,-966.31,0.98,-0.93,0.84,-14.55,10.80,-30.60,29.1
2000/01/01 00:19:06.42,IMU,-61.04,-40.04,-979.49,0.11,0.46,0.67,-14.55,9.30,-29.55,29.1
2000/01/01 00:19:06.52,IMU,-64.45,-47.36,-956.54,-2.10,0.07,1.31,-13.65,10.65,-30.30,28.6
2000/01/01 00:19:06.62,IMU,-68.85,-37.60,-975.10,-0.37,-0.86,-2.16,-15.45,9.15,-30.75,28.9
2000/01/01 00:19:06.72,IMU,-66.89,-49.32,-969.73,-0.04,-1.84,2.86,-15.45,11.10,-31.05,28.9
2000/01/01 00:19:06.82,IMU,-68.36,-51.27,-966.31,-0.66,-1.09,3.76,-15.60,11.55,-29.85,29.1
2000/01/01 00:19:06.92,IMU,-70.31,-39.06,-968.75,-0.83,-1.40,1.51,-14.85,11.25,-30.60,29.0
2000/01/01 00:19:07.03,IMU,-67.38,-43.95,-961.91,-1.32,-0.60,0.92,-15.45,11.40,-30.00,29.1
2000/01/01 00:19:07.13,IMU,-71.78,-52.25,-971.19,-1.02,-2.31,-0.82,-16.20,9.90,-30.00,29.0
2000/01/01 00:19:07.23,IMU,-65.43,-52.25,-974.61,-0.97,0.98,4.85,-15.15,10.35,-29.70,29.1
2000/01/01 00:19:07.33,IMU,-73.73,-46.39,-972.17,-0.65,-0.02,-0.35,-16.50,9.90,-30.30,29.0
2000/01/01 00:19:07.43,IMU,-66.89,-54.69,-974.61,-0.64,-2.17,1.85,-13.95,11.40,-30.30,28.7
2000/01/01 00:19:07.53,IMU,-70.31,-41.50,-977.05,0.19,-3.73,1.77,-14.25,10.80,-30.15,28.7
2000/01/01 00:19:07.63,IMU,-61.52,-50.78,-971.19,-0.73,0.83,0.02,-15.75,9.90,-30.75,29.0
2000/01/01 00:19:07.73,IMU,-62.50,-41.02,-979.49,-0.48,-2.11,-1.25,-16.50,9.15,-30.75,28.8
2000/01/01 00:19:07.83,IMU,-76.17,-39.55,-969.73,-1.36,0.96,1.43,-14.85,9.75,-31.20,29.1
2000/01/01 00:19:07.93,IMU,-58.11,-42.48,-967.77,-1.85,-0.83,-0.89,-15.45,9.90,-29.25,28.9
2000/01/01 00:19:08.03,IMU,-62.01,-49.32,-968.26,-0.17,1.34,0.18,-15.15,10.65,-31.05,29.0
2000/01/01 00:19:08.13,IMU,-70.31,-44.43,-969.24,-0.30,-0.21,0.62,-14.85,10.05,-31.65,29.0
2000/01/01 00:19:08.23,IMU,-65.43,-50.29,-964.36,-1.26,-2.05,0.23,-14.25,8.70,-29.85,29.1
2000/01/01 00:19:08.33,IMU,-63.96,-44.43,-975.10,-1.10,-0.31,2.43,-15.15,11.40,-30.30,28.9
2000/01/01 00:19:08.43,IMU,-62.01,-45.90,-963.87,-0.95,-0.43,1.89,-14.40,9.90,-29.70,28.8
2000/01/01 00:19:08.54,IMU,-78.12,-40.53,-976.56,-0.50,-2.39,-0.92,-15.30,11.55,-30.15,28.8
2000/01/01 00:19:08.64,IMU,-55.66,-56.64,-977.54,-0.40,0.24,-0.02,-15.75,10.65,-30.30,29.0
2000/01/01 00:19:08.74,IMU,-71.29,-61.52,-964.84,-1.57,-2.27,-0.79,-16.20,10.65,-29.70,28.8
2000/01/01 00:19:08.84,IMU,-57.62,-42.97,-966.80,-1.40,1.53,3.82,-15.15,10.35,-30.75,29.0
2000/01/01 00:19:08.94,IMU,-66.41,-39.55,-967.29,-0.45,0.38,1.93,-14.40,12.15,-29.70,28.6
2000/01/01 00:19:09.04,IMU,-74.22,-41.99,-961.43,0.76,-1.95,0.80,-15.30,10.80,-30.90,28.9
2000/01/01 00:19:09.14,IMU,-73.24,-47.85,-975.10,-0.08,0.14,0.02,-14.25,11.25,-30.15,29.0
2000/01/01 00:19:09.24,IMU,-63.96,-41.50,-966.31,-1.21,1.58,2.19,-14.85,10.05,-30.60,28.8
2000/01/01 00:19:09.34,IMU,-69.82,-44.92,-979.98,-0.85,-2.18,1.74,-14.85,10.80,-29.85,29.2
2000/01/01 00:19:09.44,IMU,-62.99,-56.15,-970.21,-0.18,-2.12,-1.35,-15.45,11.40,-29.25,28.9
2000/01/01 00:19:09.54,IMU,-77.64,-48.34,-978.03,-0.91,-1.66,-1.24,-16.20,9.60,-30.00,28.8
2000/01/01 00:19:09.64,IMU,-68.85,-41.50,-975.59,-2.45,0.16,0.45,-15.45,10.65,-29.25,29.0
2000/01/01 00:19:09.74,IMU,-85.94,-50.78,-965.82,-0.76,-1.29,-1.18,-15.60,10.80,-29.85,28.7
2000/01/01 00:19:09.84,IMU,-61.52,-58.59,-973.63,-0.21,1.91,-1.40,-15.60,10.50,-30.15,29.1
2000/01/01 00:19:09.94,IMU,-66.41,-56.64,-963.87,-0.53,0.55,1.09,-15.30,10.80,-30.15,28.7
2000/01/01 00:19:10.05,IMU,-70.80,-52.25,-963.38,-1.73,-0.03,0.14,-14.55,11.25,-29.85,29.0
2000/01/01 00:19:10.15,IMU,-58.11,-62.01,-968.26,-0.83,0.93,-1.48,-14.40,11.40,-30.00,29.0
2000/01/01 00:19:10.25,IMU,-54.69,-42.97,-984.38,-0.31,-0.51,2.50,-15.15,10.65,-30.75,29.0
2000/01/01 00:19:10.35,IMU,-75.20,-51.76,-981.93,-0.64,-0.71,-2.00,-15.30,9.75,-29.85,29.1
2000/01/01 00:19:10.45,IMU,-65.43,-39.55,-969.73,-0.98,-0.09,3.32,-16.50,11.10,-28.20,28.7
2000/01/01 00:19:10.55,IMU,-64.45,-34.18,-976.07,-0.64,-1.31,-0.70,-16.20,10.35,-28.65,28.7
2000/01/01 00:19:10.65,IMU,-56.15,-42.97,-976.56,-0.19,0.60,4.55,-15.30,10.80,-28.35,29.1
2000/01/01 00:19:10.75,IMU,-70.31,-40.04,-960.45,-1.27,-0.20,1.11,-16.20,9.90,-28.20,29.1
2000/01/01 00:19:10.85,IMU,-51.76,-46.39,-977.05,0.36,-1.31,1.47,-15.60,9.75,-30.60,29.0
2000/01/01 00:19:10.95,IMU,-56.15,-45.41,-974.61,-1.19,-2.15,-0.27,-15.15,11.10,-30.75,28.7
2000/01/01 00:19:11.05,IMU,-74.22,-38.09,-967.29,-1.67,-1.40,-1.11,-16.35,11.25,-29.85,28.8
2000/01/01 00:19:11.15,IMU,-75.68,-46.39,-972.66,1.37,-1.66,-0.22,-15.75,11.10,-29.25,29.0
2000/01/01 00:19:11.25,IMU,-61.04,-46.39,-967.29,-0.97,0.48,2.05,-15.30,9.75,-31.20,29.0
2000/01/01 00:19:11.35,IMU,-56.15,-41.50,-969.24,-0.90,-1.30,0.38,-16.35,12.00,-29.85,29.0
2000/01/01 00:19:11.46,IMU,-57.62,-58.11,-979.49,-1.13,-0.02,-1.02,-14.85,9.30,-30.15,29.0
2000/01/01 00:19:11.56,IMU,-67.87,-51.76,-959.47,-1.69,-0.36,-0.15,-18.30,6.90,-25.35,29.1
2000/01/01 00:19:11.66,IMU,-54.20,-33.69,-966.80,1.76,1.46,3.75,-15.15,10.65,-30.75,28.9
2000/01/01 00:19:11.76,IMU,-59.08,-31.74,-967.77,-0.21,-3.77,1.24,-16.05,9.75,-28.05,28.8
2000/01/01 00:19:11.87,IMU,-67.87,-42.48,-972.66,-2.37,1.64,0.24,-13.65,11.40,-29.70,29.1
2000/01/01 00:19:11.97,IMU,-60.55,-44.92,-966.31,1.54,-1.84,-0.18,-14.70,10.35,-30.00,28.9
2000/01/01 00:19:12.07,IMU,-68.85,-42.48,-968.75,-2.30,0.53,1.98,-15.75,11.85,-30.00,29.1
2000/01/01 00:19:12.17,IMU,-59.57,-42.48,-974.61,-1.06,-0.70,-2.85,-15.60,10.80,-29.10,28.9
2000/01/01 00:19:12.27,IMU,-74.22,-28.32,-969.24,-0.53,1.31,-1.02,-15.45,11.40,-29.70,28.9
2000/01/01 00:19:12.37,IMU,-71.29,-51.27,-974.12,-0.96,-0.24,1.96,-14.55,10.50,-30.15,28.9
2000/01/01 00:19:12.47,IMU,-67.38,-31.25,-971.19,-0.22,-1.70,0.74,-16.05,9.75,-28.80,29.1
2000/01/01 00:19:12.57,IMU,-64.45,-47.36,-971.68,-1.05,0.37,-1.28,-14.85,9.30,-29.85,29.1
2000/01/01 00:19:12.67,IMU,-62.50,-60.06,-962.40,-3.13,0.17,-2.57,-15.15,11.40,-29.70,29.0
2000/01/01 00:19:12.77,IMU,-64.45,-42.48,-962.40,-1.95,0.82,-1.60,-14.55,10.80,-30.60,29.1
2000/01/01 00:19:12.87,IMU,-65.43,-50.29,-957.03,-0.77,0.69,-0.82,-15.15,10.35,-30.75,29.0
2000/01/01 00:19:12.97,IMU,-64.45,-50.29,-966.31,0.79,1.00,3.52,-15.60,11.55,-30.15,29.1
2000/01/01 00:19:13.07,IMU,-57.62,-43.95,-965.33,1.05,-1.75,-0.85,-15.60,10.05,-29.10,29.0
2000/01/01 00:19:13.17,IMU,-71.29,-41.02,-968.75,-1.56,-1.08,0.77,-16.50,9.60,-29.70,29.2
2000/01/01 00:19:13.27,IMU,-74.71,-44.92,-976.56,0.09,-1.17,1.02,-17.10,10.05,-29.55,28.6
2000/01/01 00:19:13.38,IMU,-64.94,-38.57,-962.40,0.11,-3.12,1.87,-16.50,10.35,-28.20,29.2
2000/01/01 00:19:13.48,IMU,-69.82,-40.04,-976.07,-1.56,-2.23,-1.29,-15.60,9.75,-29.85,29.0
2000/01/01 00:19:13.58,IMU,-56.64,-44.43,-969.73,0.84,-0.38,0.56,-15.45,9.60,-29.25,29.1
2000/01/01 00:19:13.68,IMU,-63.96,-44.92,-966.80,-1.11,-2.28,2.50,-15.30,9.30,-30.30,29.1
2000/01/01 00:19:13.78,IMU,-64.45,-52.25,-966.31,-0.66,-2.21,-1.76,-16.20,10.35,-29.70,28.9
2000/01/01 00:19:13.88,IMU,-64.94,-50.78,-972.17,-1.56,0.98,2.37,-15.30,10.50,-29.85,28.8
2000/01/01 00:19:13.98,IMU,-70.31,-54.20,-983.89,-0.91,-2.01,1.02,-15.30,11.55,-28.35,29.1
2000/01/01 00:19:14.08,IMU,-68.85,-43.95,-969.73,1.17,-0.53,-1.15,-16.35,10.50,-29.55,29.1
2000/01/01 00:19:14.18,IMU,-64.45,-48.83,-969.73,-0.34,-0.40,-2.36,-16.20,11.10,-28.20,29.1
2000/01/01 00:19:14.28,IMU,-63.48,-34.18,-974.61,-1.05,-1.37,1.29,-15.45,11.85,-30.30,29.0
2000/01/01 00:19:14.38,IMU,-61.52,-39.06,-964.84,-1.44,0.66,-1.83,-14.70,12.15,-29.70,29.0
2000/01/01 00:19:14.48,IMU,-63.48,-40.53,-974.12,-1.01,-1.47,-1.37,-16.20,9.90,-29.25,28.9
2000/01/01 00:19:14.58,IMU,-72.27,-49.32,-976.56,-1.66,-2.10,2.02,-17.40,11.25,-30.15,28.8
2000/01/01 00:19:14.68,IMU,-68.85,-40.04,-966.80,-1.64,-2.47,0.06,-15.75,11.10,-30.30,29.0
2000/01/01 00:19:14.79,IMU,-70.31,-42.48,-975.10,0.52,-1.00,-1.27,-16.50,9.60,-28.20,29.1
2000/01/01 00:19:14.89,IMU,-60.06,-45.41,-974.12,0.10,-1.66,3.32,-15.60,10.80,-30.60,28.8
2000/01/01 00:19:14.99,IMU,-72.27,-52.73,-969.24,-1.15,-3.09,2.87,-15.45,10.35,-29.70,28.9
2000/01/01 00:19:15.09,IMU,-67.87,-55.18,-974.61,-2.10,0.63,0.10,-13.95,10.65,-29.70,29.2
2000/01/01 00:19:15.19,IMU,-61.04,-46.88,-967.29,0.08,0.99,-1.63,-15.30,11.25,-30.15,28.7
2000/01/01 00:19:15.29,IMU,-61.04,-47.36,-973.14,2.02,-2.08,0.30,-14.55,10.50,-29.55,29.1
2000/01/01 00:19:15.39,IMU,-64.45,-37.11,-959.96,-1.34,-0.24,-1.81,-15.60,11.55,-29.55,29.1
2000/01/01 00:19:15.49,IMU,-73.24,-33.69,-971.68,0.81,-0.13,-0.21,-14.85,10.50,-30.90,28.8
2000/01/01 00:19:15.59,IMU,-78.12,-48.34,-977.54,-0.53,1.26,0.48,-15.45,10.65,-30.00,29.0
2000/01/01 00:19:15.69,IMU,-52.25,-55.66,-978.03,-1.92,-0.16,-0.55,-16.35,9.75,-28.80,29.1
2000/01/01 00:19:15.79,IMU,-69.82,-51.27,-975.10,0.18,-3.51,-3.35,-15.60,10.50,-29.55,28.7
2000/01/01 00:19:15.89,IMU,-63.96,-44.43,-968.75,-1.84,-0.14,-0.40,-15.60,9.30,-28.35,28.9
2000/01/01 00:19:15.99,IMU,-57.62,-38.09,-978.03,1.34,-1.21,0.21,-17.10,11.25,-29.10,29.0
2000/01/01 00:19:16.09,IMU,-68.36,-50.29,-954.10,-2.86,-0.33,-0.94,-16.05,10.05,-29.85,28.8
2000/01/01 00:19:16.19,IMU,-69.34,-40.04,-970.70,-1.11,-0.16,1.48,-14.40,9.90,-30.00,28.7
2000/01/01 00:19:16.29,IMU,-62.50,-36.13,-969.73,-1.50,-1.01,1.99,-15.30,10.05,-30.15,29.0
2000/01/01 00:19:16.40,IMU,-62.01,-51.27,-970.21,-0.56,-0.31,-2.01,-15.15,9.90,-30.75,29.0
2000/01/01 00:19:16.50,IMU,-68.36,-53.22,-958.50,-2.59,1.01,0.66,-16.65,10.50,-29.10,28.8
2000/01/01 00:19:16.60,IMU,-62.99,-41.99,-968.75,-0.02,0.57,-2.14,-15.30,10.50,-30.15,29.0
2000/01/01 00:19:16.70,IMU,-59.08,-44.43,-959.96,-1.97,-0.66,1.76,-15.45,11.10,-30.00,28.9
2000/01/01 00:19:16.80,IMU,-64.94,-40.53,-967.29,0.11,-1.00,-1.50,-15.30,9.75,-30.15,28.9
2000/01/01 00:19:16.90,IMU,-58.11,-51.27,-971.68,1.04,-0.27,-0.21,-16.65,10.05,-29.85,28.9
2000/01/01 00:19:17.00,IMU,-67.38,-35.16,-974.12,-1.39,-1.39,-1.82,-15.45,11.40,-29.25,28.9
2000/01/01 00:19:17.10,IMU,-68.36,-40.04,-972.66,-0.40,1.44,1.52,-16.05,10.80,-29.55,28.9
2000/01/01 00:19:17.20,IMU,-64.94,-34.67,-968.75,0.00,1.55,-0.33,-14.55,10.50,-29.55,28.8
2000/01/01 00:19:17.32,IMU,-74.22,-28.81,-972.17,0.41,-0.24,2.30,-15.60,10.80,-29.85,28.9
2000/01/01 00:19:17.42,IMU,-64.45,-50.78,-961.43,-1.44,-1.53,-0.24,-15.75,10.35,-28.95,28.9
2000/01/01 00:19:17.52,IMU,-66.41,-60.55,-972.66,-0.54,0.73,-1.76,-14.85,11.25,-28.80,29.1
2000/01/01 00:19:17.63,IMU,-61.52,-46.39,-963.87,-1.00,1.27,0.26,-16.20,11.10,-28.95,28.9
2000/01/01 00:19:17.73,IMU,-59.08,-42.48,-977.54,0.43,-0.66,2.51,-14.40,10.35,-29.70,29.0
2000/01/01 00:19:17.83,IMU,-70.80,-45.41,-966.80,-0.89,-0.21,-1.30,-14.85,10.05,-28.80,29.0
2000/01/01 00:19:17.93,IMU,-60.06,-55.66,-966.80,-1.21,0.60,0.29,-15.45,9.15,-29.25,28.8
2000/01/01 00:19:18.03,IMU,-75.20,-44.92,-971.19,2.83,-2.31,-0.18,-16.20,11.40,-31.05,29.0
2000/01/01 00:19:18.13,IMU,-73.24,-47.36,-965.33,-1.42,0.05,-1.82,-17.10,10.80,-29.85,28.7
2000/01/01 00:19:18.23,IMU,-62.01,-37.60,-979.49,-0.90,-0.33,-1.27,-16.35,11.25,-29.55,28.9
2000/01/01 00:19:18.33,IMU,-73.73,-46.88,-962.89,-0.22,-1.56,-1.35,-14.25,10.80,-30.60,28.9
2000/01/01 00:19:18.43,IMU,-72.75,-34.67,-975.59,-0.53,0.30,-1.21,-15.30,12.00,-28.05,29.0
2000/01/01 00:19:18.53,IMU,-59.08,-42.97,-967.29,-1.05,-1.22,-0.62,-15.75,10.65,-30.00,28.9
2000/01/01 00:19:18.63,IMU,-48.83,-46.88,-959.96,-3.00,0.64,0.80,-15.15,10.65,-29.70,28.8
2000/01/01 00:19:18.73,IMU,-64.94,-51.27,-974.61,-0.56,0.39,-0.14,-15.75,10.35,-29.70,29.0
2000/01/01 00:19:18.83,IMU,-64.94,-49.80,-971.19,-0.18,0.90,1.60,-15.30,10.05,-29.85,28.7
2000/01/01 00:19:18.93,IMU,-62.99,-43.95,-969.24,-0.07,-2.61,0.04,-15.60,11.25,-30.15,29.0
2000/01/01 00:19:19.04,IMU,-72.75,-50.29,-975.10,-0.33,0.44,1.32,-15.75,10.35,-30.30,29.1
2000/01/01 00:19:19.14,IMU,-67.87,-40.53,-971.68,0.75,-2.89,-0.34,-15.60,10.50,-29.55,28.7
2000/01/01 00:19:19.24,IMU,-57.62,-37.60,-970.70,-2.09,-0.07,2.06,-15.60,10.80,-30.15,28.7
2000/01/01 00:19:19.34,IMU,-66.89,-41.99,-955.57,0.44,0.47,2.13,-15.30,10.05,-29.10,28.7
2000/01/01 00:19:19.44,IMU,-65.92,-44.92,-975.10,-0.19,-0.46,2.04,-16.50,10.35,-30.00,28.8
2000/01/01 00:19:19.54,IMU,-58.11,-48.83,-962.40,-0.93,-0.92,3.28,-16.05,11.55,-29.10,29.0
2000/01/01 00:19:19.64,IMU,-50.78,-48.83,-970.21,-0.78,0.18,1.41,-15.60,10.50,-31.65,28.7
2000/01/01 00:19:19.74,IMU,-72.27,-37.60,-966.80,1.79,-0.53,-3.56,-15.75,10.35,-29.25,29.0
2000/01/01 00:19:19.84,IMU,-57.62,-42.48,-974.61,-1.14,-0.37,0.91,-14.70,10.65,-30.75,28.6
2000/01/01 00:19:19.94,IMU,-63.96,-40.53,-975.10,-0.31,-0.02,0.37,-15.45,12.45,-29.70,28.9
2000/01/01 00:19:20.04,IMU,-71.29,-44.92,-966.31,0.18,-0.93,3.03,-15.15,11.10,-29.25,28.9
2000/01/01 00:19:20.14,IMU,-59.08,-42.48,-965.82,-0.29,-0.80,-2.11,-15.15,10.35,-30.00,29.1
2000/01/01 00:19:20.24,IMU,-60.06,-47.36,-970.21,0.27,-1.71,-0.37,-15.45,11.85,-29.25,28.9
2000/01/01 00:19:20.34,IMU,-60.06,-30.76,-975.10,-0.56,-0.82,4.15,-14.25,9.75,-28.35,29.0
2000/01/01 00:19:20.44,IMU,-54.20,-32.71,-969.24,-1.37,-0.76,1.39,-14.55,11.55,-29.85,28.6
2000/01/01 00:19:20.54,IMU,-64.45,-49.32,-975.59,-1.96,-0.51,-0.35,-15.30,10.50,-29.85,28.9
2000/01/01 00:19:20.65,IMU,-55.18,-47.36,-967.77,-1.76,1.54,4.76,-16.20,10.35,-28.95,28.8
2000/01/01 00:19:20.75,IMU,-66.41,-31.25,-970.21,-2.76,1.97,-0.83,-17.85,9.00,-25.95,28.8
2000/01/01 00:19:20.85,IMU,-69.34,-51.76,-974.12,-0.60,-0.69,0.57,-16.65,11.55,-30.90,28.7
2000/01/01 00:19:20.95,IMU,-69.34,-45.41,-975.59,1.52,-1.66,0.91,-15.75,10.35,-29.70,28.9
2000/01/01 00:19:21.05,IMU,-64.94,-46.39,-973.14,0.62,-0.10,2.15,-15.15,11.10,-30.75,28.8
2000/01/01 00:19:21.15,IMU,-58.59,-32.71,-970.70,0.93,-1.71,-0.47,-16.50,10.35,-30.00,28.7
2000/01/01 00:19:21.25,IMU,-78.12,-43.46,-972.66,-0.06,2.42,0.15,-15.30,11.25,-29.10,28.9
2000/01/01 00:19:21.35,IMU,-72.27,-41.02,-959.96,-2.69,-3.24,-0.99,-15.30,9.30,-29.10,28.7
2000/01/01 00:19:21.45,IMU,-64.94,-55.18,-957.03,0.12,-0.57,1.54,-16.35,11.25,-29.10,29.0
2000/01/01 00:19:21.55,IMU,-61.52,-45.41,-961.91,-1.91,-2.92,0.03,-15.75,11.10,-29.70,28.9
2000/01/01 00:19:21.65,IMU,-62.01,-39.55,-967.29,0.53,-2.18,3.02,-16.50,10.35,-28.95,29.1
2000/01/01 00:19:21.75,IMU,-62.99,-44.43,-968.26,-1.63,-0.18,0.34,-17.40,9.00,-25.95,28.7
2000/01/01 00:19:21.85,IMU,-49.32,-48.83,-966.80,-0.34,-0.76,3.34,-16.20,10.35,-29.70,28.9
2000/01/01 00:19:21.95,IMU,-61.04,-41.02,-973.63,-1.35,-0.47,-0.40,-16.05,10.05,-30.60,28.8
2000/01/01 00:19:22.06,IMU,-60.55,-45.90,-974.12,-1.21,-1.12,-2.15,-16.05,10.05,-28.80,28.8
2000/01/01 00:19:22.16,IMU,-52.25,-40.53,-975.10,-1.44,-0.38,-2.11,-15.75,9.90,-29.25,28.8
2000/01/01 00:19:22.26,IMU,-63.96,-36.62,-969.73,-1.75,-0.51,1.47,-16.35,10.50,-29.10,28.9
2000/01/01 00:19:22.36,IMU,-64.94,-42.97,-960.94,-0.55,-0.89,-1.32,-16.20,9.90,-30.75,28.9
2000/01/01 00:19:22.46,IMU,-71.78,-46.88,-966.31,0.60,-0.52,0.90,-15.45,12.45,-30.00,29.0
2000/01/01 00:19:22.56,IMU,-68.36,-48.34,-975.10,1.22,-0.76,-0.42,-16.05,10.50,-29.55,29.0
2000/01/01 00:19:22.66,IMU,-62.01,-49.80,-978.52,0.59,-3.14,3.90,-13.65,9.60,-30.75,28.7
2000/01/01 00:19:22.77,IMU,-62.99,-49.80,-959.47,-1.85,-2.07,0.83,-20.55,8.85,-25.35,28.8
2000/01/01 00:19:22.87,IMU,-68.85,-50.78,-973.14,1.11,0.22,-1.17,-17.25,10.65,-30.30,28.9
2000/01/01 00:19:22.97,IMU,-71.78,-46.88,-969.24,-2.19,-2.13,1.83,-16.95,9.90,-27.90,29.0
2000/01/01 00:19:23.07,IMU,-57.13,-34.67,-958.98,-0.97,-0.99,-1.37,-14.85,10.50,-29.55,28.7
2000/01/01 00:19:23.17,IMU,-48.83,-40.04,-971.19,1.15,0.02,0.16,-15.60,10.05,-29.85,28.9
2000/01/01 00:19:23.27,IMU,-66.41,-49.80,-960.94,-2.77,-2.98,-2.09,-15.45,9.90,-29.70,28.8
2000/01/01 00:19:23.37,IMU,-66.89,-46.39,-963.87,1.16,0.86,0.02,-16.35,10.80,-29.10,29.1
2000/01/01 00:19:23.47,IMU,-71.78,-41.02,-969.73,-0.40,-0.62,-2.66,-15.45,10.65,-28.65,28.7
2000/01/01 00:19:23.57,IMU,-68.36,-41.02,-973.63,-1.44,1.77,0.21,-16.20,10.65,-28.95,29.0
2000/01/01 00:19:23.67,IMU,-64.94,-42.48,-979.00,-1.26,-2.31,-0.18,-15.30,9.75,-29.55,29.0
2000/01/01 00:19:23.77,IMU,-69.82,-30.76,-968.75,-0.49,0.40,-1.76,-16.35,10.80,-29.55,29.1
2000/01/01 00:19:23.87,IMU,-78.61,-43.95,-969.24,-1.06,-1.66,-1.50,-15.45,10.35,-29.25,28.7
2000/01/01 00:19:23.98,IMU,-65.92,-44.43,-974.61,-0.24,-3.07,0.57,-16.50,10.35,-28.95,28.8
2000/01/01 00:19:24.08,IMU,-67.87,-42.48,-953.13,-2.49,-0.10,1.97,-15.45,11.10,-30.30,28.9
2000/01/01 00:19:24.18,IMU,-60.55,-40.04,-973.14,-1.15,-0.23,1.69,-15.60,10.05,-29.55,28.9
2000/01/01 00:19:24.28,IMU,-66.41,-44.43,-975.10,-1.18,0.24,-0.12,-15.30,9.75,-29.55,28.9
2000/01/01 00:19:24.38,IMU,-76.17,-39.55,-971.19,-1.21,-1.66,-0.53,-15.45,8.85,-30.30,28.9
2000/01/01 00:19:24.48,IMU,-67.38,-40.53,-977.05,-1.56,0.47,-0.68,-15.15,9.15,-29.70,28.8
2000/01/01 00:19:24.58,IMU,-62.50,-44.92,-983.89,-1.96,0.37,-1.62,-14.85,9.30,-30.15,29.0
2000/01/01 00:19:24.68,IMU,-59.57,-36.13,-975.10,0.57,-0.66,-1.89,-15.45,9.90,-28.95,28.8
2000/01/01 00:19:24.78,IMU,-64.94,-50.78,-970.70,-0.38,-0.66,-0.35,-16.65,9.30,-30.60,28.9
2000/01/01 00:19:24.88,IMU,-72.75,-37.11,-969.73,-0.29,-2.08,1.15,-15.30,10.05,-29.10,29.0
2000/01/01 00:19:24.98,IMU,-61.52,-41.50,-965.33,1.95,0.58,-1.04,-15.30,11.25,-30.90,28.9
2000/01/01 00:19:25.08,IMU,-61.04,-53.71,-974.61,0.25,-1.99,3.22,-14.55,9.75,-29.10,28.9
2000/01/01 00:19:25.18,IMU,-68.85,-53.22,-968.26,0.39,-1.94,0.92,-15.30,11.25,-28.80,28.9
2000/01/01 00:19:25.28,IMU,-58.11,-41.50,-965.82,1.91,0.36,2.55,-15.30,10.50,-29.55,28.8
2000/01/01 00:19:25.38,IMU,-59.08,-43.46,-977.05,1.93,0.30,-2.59,-14.70,11.10,-29.70,28.5
2000/01/01 00:19:25.48,IMU,-61.04,-46.39,-963.38,0.20,-0.48,-0.40,-16.35,9.75,-30.15,29.0
2000/01/01 00:19:25.59,IMU,-70.80,-56.15,-965.82,-0.93,2.69,2.40,-15.60,10.50,-29.10,29.0
2000/01/01 00:19:25.69,IMU,-63.48,-36.13,-965.33,-1.83,0.16,-1.09,-15.45,9.15,-30.30,28.8
2000/01/01 00:19:25.79,IMU,-72.27,-35.16,-968.75,0.81,-0.19,-1.89,-16.35,11.55,-29.85,29.0
2000/01/01 00:19:25.89,IMU,-61.52,-52.73,-964.84,-2.05,0.96,1.11,-15.75,10.35,-28.95,29.0
2000/01/01 00:19:25.99,IMU,-50.78,-37.11,-969.73,-2.53,0.84,-1.45,-15.45,11.10,-28.65,28.7
2000/01/01 00:19:26.09,IMU,-69.34,-43.95,-972.17,-1.93,-0.98,0.89,-15.45,11.40,-30.30,28.8
2000/01/01 00:19:26.19,IMU,-77.15,-49.32,-962.40,0.95,-0.74,0.29,-15.15,9.15,-28.65,28.8
2000/01/01 00:19:26.29,IMU,-67.38,-49.32,-972.66,-1.39,-2.18,2.71,-15.15,12.45,-30.30,29.0
2000/01/01 00:19:26.39,IMU,-66.41,-45.41,-965.82,1.08,3.04,-1.16,-14.85,10.50,-29.10,28.6
2000/01/01 00:19:26.49,IMU,-74.71,-47.85,-966.31,-0.35,-1.70,-3.06,-17.25,10.65,-30.00,29.0
2000/01/01 00:19:26.59,IMU,-56.15,-39.06,-962.40,-0.56,-1.15,-1.16,-14.85,10.80,-30.90,29.1
2000/01/01 00:19:26.69,IMU,-66.89,-40.04,-969.73,-1.21,-0.61,0.05,-15.60,10.05,-30.60,28.7
2000/01/01 00:19:26.79,IMU,-75.20,-52.73,-974.12,-1.08,0.18,-0.96,-17.25,9.60,-29.25,28.6
2000/01/01 00:19:26.89,IMU,-65.43,-43.95,-963.87,-1.76,-0.35,-2.82,-17.10,10.50,-30.15,28.8
2000/01/01 00:19:27.00,IMU,-65.43,-45.90,-962.89,-0.21,-0.13,2.80,-17.55,11.40,-30.30,28.9
2000/01/01 00:19:27.10,IMU,-64.45,-44.92,-962.40,-2.91,1.02,1.34,-15.75,10.65,-30.00,29.0
2000/01/01 00:19:27.20,IMU,-66.41,-48.83,-968.75,1.15,-0.89,-0.12,-15.75,9.90,-30.00,28.9
2000/01/01 00:19:27.30,IMU,-64.45,-42.48,-966.31,-2.63,-0.45,0.73,-16.05,10.05,-30.15,28.7
2000/01/01 00:19:27.40,IMU,-53.71,-43.95,-973.14,-0.47,1.92,0.21,-15.45,9.60,-29.70,28.8
2000/01/01 00:19:27.50,IMU,-66.89,-49.32,-970.70,-0.48,-1.35,1.55,-14.85,10.50,-29.55,28.9
2000/01/01 00:19:27.60,IMU,-69.34,-48.83,-978.52,-0.40,-0.33,0.61,-16.50,9.60,-30.00,29.0
2000/01/01 00:19:27.70,IMU,-66.89,-41.02,-967.77,-1.19,-2.23,0.47,-15.60,10.80,-30.60,29.0
2000/01/01 00:19:27.80,IMU,-70.31,-28.32,-970.70,-1.97,0.96,-0.19,-15.15,10.65,-29.70,28.9
2000/01/01 00:19:27.90,IMU,-60.06,-48.34,-960.45,-0.52,-3.32,2.26,-16.05,10.05,-30.15,28.7
2000/01/01 00:19:28.00,IMU,-64.94,-33.69,-977.05,-0.98,-1.60,-2.78,-15.60,11.25,-30.15,28.9
2000/01/01 00:19:28.10,IMU,-70.31,-43.95,-977.05,-1.24,-0.27,0.35,-15.45,10.35,-30.00,28.8
2000/01/01 00:19:28.20,IMU,-64.45,-50.78,-979.98,0.66,1.53,-0.34,-15.15,9.90,-30.75,29.0
2000/01/01 00:19:28.30,IMU,-55.18,-40.53,-977.05,1.24,0.34,-1.08,-15.30,10.05,-29.85,28.6
2000/01/01 00:19:28.40,IMU,-62.99,-41.02,-969.24,-0.03,-0.57,0.82,-14.25,11.25,-29.55,28.8
2000/01/01 00:19:28.50,IMU,-70.31,-42.97,-957.03,-1.22,-0.58,-0.05,-15.60,11.25,-30.15,28.7
2000/01/01 00:19:28.61,IMU,-64.94,-47.85,-969.73,-0.92,0.40,1.18,-16.65,10.50,-29.85,28.9
2000/01/01 00:19:28.71,IMU,-61.52,-43.95,-964.84,-3.02,-1.58,-1.49,-14.25,11.25,-29.85,29.1
2000/01/01 00:19:28.81,IMU,-72.27,-33.69,-964.36,-0.40,2.62,1.07,-16.05,10.80,-30.15,28.7
2000/01/01 00:19:28.91,IMU,-55.18,-31.25,-964.36,-0.98,0.40,-0.74,-16.20,9.90,-30.00,28.8
2000/01/01 00:19:29.01,IMU,-67.87,-51.76,-969.73,0.45,-2.53,1.13,-16.95,10.65,-31.05,28.9
2000/01/01 00:19:29.11,IMU,-54.69,-53.71,-977.54,-0.85,1.59,1.39,-14.70,12.15,-27.60,28.9
2000/01/01 00:19:29.21,IMU,-72.75,-36.13,-976.56,-0.32,-2.05,3.28,-14.55,11.55,-30.15,28.8
2000/01/01 00:19:29.31,IMU,-62.50,-48.34,-966.31,-0.54,1.40,0.34,-16.05,9.75,-29.55,29.0
2000/01/01 00:19:29.41,IMU,-69.82,-51.27,-969.73,-0.21,-3.25,-0.74,-16.65,9.75,-30.15,29.1
2000/01/01 00:19:29.51,IMU,-60.55,-41.50,-976.07,-1.44,-1.40,0.56,-15.60,10.80,-29.55,28.9
2000/01/01 00:19:29.61,IMU,-61.04,-42.97,-979.49,-1.80,-1.24,1.65,-15.45,10.35,-28.95,28.9
2000/01/01 00:19:29.71,IMU,-71.29,-50.78,-979.00,-1.28,1.66,0.37,-15.75,11.40,-29.70,28.6
2000/01/01 00:19:29.81,IMU,-71.29,-45.90,-971.19,-1.07,-1.40,-1.54,-14.55,10.05,-28.80,28.9
2000/01/01 00:19:29.91,IMU,-68.85,-46.39,-979.00,-0.77,-2.51,0.59,-18.90,7.95,-27.00,28.9
2000/01/01 00:19:30.01,IMU,-66.41,-53.71,-980.96,-0.60,-1.13,1.59,-16.05,9.30,-29.85,28.9
2000/01/01 00:19:30.12,IMU,-65.43,-41.99,-968.75,-0.89,0.85,0.32,-16.05,10.05,-30.15,29.0
2000/01/01 00:19:30.22,IMU,-63.48,-49.32,-967.29,-0.35,-0.09,0.42,-16.65,11.25,-29.55,28.8
2000/01/01 00:19:30.32,IMU,-63.96,-43.95,-973.63,-0.69,2.30,0.83,-16.50,11.10,-30.00,28.8
2000/01/01 00:19:30.42,IMU,-72.75,-41.50,-967.29,-1.93,-2.08,0.44,-16.50,11.85,-31.05,28.8
2000/01/01 00:19:30.52,IMU,-61.04,-44.92,-958.01,-1.61,0.84,1.31,-16.35,10.50,-28.80,29.1
2000/01/01 00:19:30.62,IMU,-76.17,-39.06,-974.12,-0.05,-2.05,-0.11,-15.30,11.55,-29.55,28.8
2000/01/01 00:19:30.72,IMU,-75.68,-59.57,-964.36,0.95,-0.95,-0.50,-17.55,11.10,-28.95,28.8
2000/01/01 00:19:30.82,IMU,-57.62,-47.36,-970.21,0.31,-0.50,-1.72,-14.85,11.55,-29.85,29.0
2000/01/01 00:19:30.92,IMU,-60.06,-34.18,-955.57,-1.45,0.08,2.80,-13.80,9.30,-27.00,29.0
