Timestamp,Sensor,AccX,AccY,AccZ,GyrX,GyrY,GyrZ,MagX,MagY,MagZ,Temp
2000/01/01 00:21:20.46,IMU,-71.78,-49.32,-973.14,-0.54,2.24,3.69,-15.75,7.35,-27.90,28.6
2000/01/01 00:21:20.56,IMU,-74.22,-51.76,-971.68,-1.50,-1.21,-1.27,-15.30,8.70,-28.80,28.6
2000/01/01 00:21:20.66,IMU,-66.89,-43.46,-962.89,-0.33,-2.31,-0.39,-15.60,9.00,-29.10,29.0
2000/01/01 00:21:20.76,IMU,-64.94,-32.71,-973.14,-0.31,-0.01,3.47,-16.65,6.00,-28.05,28.9
2000/01/01 00:21:20.86,IMU,-62.99,-46.88,-974.61,-0.43,-1.49,2.02,-16.35,7.50,-29.10,28.8
2000/01/01 00:21:20.96,IMU,-59.08,-41.02,-973.14,-0.83,0.43,-0.31,-17.40,6.75,-28.35,28.9
2000/01/01 00:21:21.06,IMU,-64.45,-43.95,-971.19,-1.86,-0.61,-1.79,-15.15,6.90,-29.70,29.0
2000/01/01 00:21:21.17,IMU,-61.52,-43.95,-975.10,-2.78,-1.36,1.20,-16.50,7.65,-28.95,29.0
2000/01/01 00:21:21.27,IMU,-72.27,-40.04,-980.47,0.47,1.31,1.62,-16.20,6.90,-28.65,29.0
2000/01/01 00:21:21.37,IMU,-67.38,-40.53,-976.07,-1.62,-0.28,1.72,-16.20,8.10,-27.60,28.9
2000/01/01 00:21:21.47,IMU,-66.89,-43.95,-962.89,0.86,-1.39,-2.04,-16.05,8.25,-28.80,28.6
2000/01/01 00:21:21.57,IMU,-55.18,-44.92,-972.17,-1.76,0.47,-0.64,-17.40,8.25,-26.70,28.6
2000/01/01 00:21:21.67,IMU,-67.87,-48.83,-958.01,-1.34,0.06,2.17,-15.15,6.90,-28.20,29.1
2000/01/01 00:21:21.77,IMU,-72.75,-47.36,-966.80,-0.11,0.79,1.11,-15.75,8.40,-28.95,28.9
2000/01/01 00:21:21.87,IMU,-59.57,-40.53,-972.17,-1.98,-2.81,-0.59,-15.75,6.60,-27.90,28.7
2000/01/01 00:21:21.97,IMU,-64.45,-56.15,-970.70,0.82,-2.96,0.14,-15.75,6.90,-28.65,28.6
2000/01/01 00:21:22.07,IMU,-72.75,-47.85,-964.84,-0.02,-1.08,0.00,-16.50,8.40,-28.20,29.1
2000/01/01 00:21:22.17,IMU,-73.73,-41.02,-980.47,-1.42,2.75,0.26,-15.60,7.20,-28.35,29.0
2000/01/01 00:21:22.27,IMU,-69.82,-35.64,-972.66,-1.37,-1.75,-0.23,-17.85,8.25,-27.75,29.0
2000/01/01 00:21:22.37,IMU,-73.73,-42.97,-963.87,0.29,1.56,-0.75,-16.50,7.65,-29.25,28.9
2000/01/01 00:21:22.47,IMU,-75.68,-45.41,-967.77,-1.58,1.19,0.13,-16.95,8.10,-27.60,28.6
2000/01/01 00:21:22.57,IMU,-70.31,-34.18,-963.87,-1.26,-1.46,0.65,-15.15,8.10,-30.00,28.8
2000/01/01 00:21:22.68,IMU,-67.87,-34.18,-964.36,-0.54,1.52,3.41,-16.95,8.40,-28.65,28.9
2000/01/01 00:21:22.78,IMU,-48.83,-45.41,-955.08,1.01,-0.38,2.34,-15.75,7.35,-28.20,28.8
2000/01/01 00:21:22.88,IMU,-69.82,-36.62,-971.68,-0.86,-0.21,1.30,-16.35,7.95,-27.75,28.9
2000/01/01 00:21:22.98,IMU,-63.48,-44.92,-971.19,0.50,-0.65,1.00,-16.35,7.50,-28.05,29.1
2000/01/01 00:21:23.08,IMU,-77.64,-50.78,-956.05,-1.33,-0.73,-1.19,-17.10,8.25,-28.05,28.8
2000/01/01 00:21:23.18,IMU,-59.57,-45.41,-965.33,0.45,1.31,1.55,-16.65,9.75,-28.05,28.8
2000/01/01 00:21:23.28,IMU,-60.06,-40.53,-965.82,-0.39,0.02,-1.06,-17.25,7.65,-28.95,29.0
2000/01/01 00:21:23.38,IMU,-70.31,-43.95,-956.05,-1.62,-0.41,-0.66,-14.40,8.40,-29.70,28.7
2000/01/01 00:21:23.48,IMU,-58.59,-36.13,-972.17,0.67,-1.25,-2.02,-16.50,7.35,-28.65,28.9
2000/01/01 00:21:23.58,IMU,-52.25,-42.97,-974.12,-3.11,-1.49,1.81,-16.35,7.50,-28.80,29.1
2000/01/01 00:21:23.68,IMU,-62.99,-48.34,-968.75,-1.66,1.28,1.56,-16.95,7.35,-27.60,29.1
2000/01/01 00:21:23.78,IMU,-60.06,-38.09,-964.84,-1.51,-0.40,-0.49,-17.40,8.25,-28.35,29.0
2000/01/01 00:21:23.88,IMU,-69.34,-41.99,-958.01,-0.31,-1.00,-3.21,-16.20,8.85,-28.20,29.0
2000/01/01 00:21:23.98,IMU,-73.73,-39.06,-970.70,0.85,1.79,1.45,-15.75,8.40,-27.90,28.9
2000/01/01 00:21:24.08,IMU,-62.50,-47.36,-961.91,-0.80,0.63,-0.37,-16.20,8.40,-27.90,28.9
2000/01/01 00:21:24.19,IMU,-60.06,-44.43,-967.29,0.53,-0.19,0.76,-16.05,9.00,-27.75,29.0
2000/01/01 00:21:24.29,IMU,-53.71,-47.85,-973.14,-1.05,-2.01,1.82,-16.50,9.15,-28.95,28.9
2000/01/01 00:21:24.39,IMU,-65.43,-40.04,-969.24,-0.92,-1.33,-3.20,-15.15,7.35,-27.60,29.1
2000/01/01 00:21:24.49,IMU,-56.64,-45.90,-966.80,1.15,-1.43,1.91,-16.35,6.75,-28.05,29.1
2000/01/01 00:21:24.59,IMU,-61.04,-53.22,-973.63,-0.27,-0.72,0.91,-16.20,7.65,-27.90,28.9
2000/01/01 00:21:24.69,IMU,-65.43,-46.39,-965.33,-1.76,-1.69,0.15,-14.85,7.95,-28.80,28.9
2000/01/01 00:21:24.79,IMU,-55.18,-44.92,-973.63,-0.48,-0.11,2.41,-16.20,8.85,-29.25,29.0
2000/01/01 00:21:24.89,IMU,-72.27,-38.57,-973.14,1.02,-1.84,2.72,-16.65,8.70,-29.55,28.8
2000/01/01 00:21:24.99,IMU,-58.59,-44.43,-971.68,2.02,0.48,-1.95,-16.05,7.95,-28.35,28.8
2000/01/01 00:21:25.09,IMU,-67.38,-50.78,-959.47,0.53,0.11,-0.62,-17.10,7.50,-28.35,28.9
2000/01/01 00:21:25.19,IMU,-68.85,-45.90,-965.82,0.38,-0.53,1.07,-15.45,8.40,-27.60,29.0
2000/01/01 00:21:25.29,IMU,-64.45,-59.57,-976.07,-0.62,-0.19,3.07,-17.10,8.25,-28.80,28.9
2000/01/01 00:21:25.39,IMU,-70.31,-50.78,-972.17,-1.70,1.42,1.70,-16.35,9.30,-28.35,28.9
2000/01/01 00:21:25.49,IMU,-54.20,-38.09,-971.19,-0.95,-1.91,0.41,-17.10,7.50,-28.05,29.0
2000/01/01 00:21:25.59,IMU,-72.27,-44.92,-969.24,-0.92,-1.92,-0.40,-18.45,8.25,-26.25,28.8
2000/01/01 00:21:25.70,IMU,-74.22,-35.64,-979.00,0.63,-0.93,4.25,-16.65,8.70,-28.05,29.1
2000/01/01 00:21:25.80,IMU,-62.99,-48.34,-967.77,0.61,0.70,-0.76,-15.75,7.35,-28.65,29.1
2000/01/01 00:21:25.90,IMU,-66.89,-41.02,-968.75,-0.37,0.79,-0.63,-16.05,7.20,-28.80,28.9
2000/01/01 00:21:26.00,IMU,-62.99,-38.57,-968.75,0.53,-1.17,4.05,-15.30,8.25,-28.35,28.8
2000/01/01 00:21:26.10,IMU,-61.04,-57.62,-959.47,-1.55,-0.69,2.99,-16.95,6.90,-28.20,29.1
2000/01/01 00:21:26.20,IMU,-69.82,-43.46,-963.38,-1.53,-0.66,0.94,-15.75,8.85,-26.85,28.8
2000/01/01 00:21:26.30,IMU,-63.96,-26.37,-972.66,-1.00,-0.08,-2.79,-17.40,7.95,-28.80,28.6
2000/01/01 00:21:26.40,IMU,-67.38,-47.36,-979.98,-1.79,0.04,-0.92,-17.85,7.20,-29.85,28.9
2000/01/01 00:21:26.50,IMU,-58.59,-49.32,-967.77,-0.61,0.11,-1.31,-14.85,7.50,-28.05,28.8
2000/01/01 00:21:26.60,IMU,-56.64,-49.32,-993.65,0.07,-0.14,0.13,-16.95,7.35,-28.20,29.0
2000/01/01 00:21:26.70,IMU,-59.57,-37.60,-963.87,-3.42,-0.66,0.50,-15.75,8.10,-28.95,28.9
2000/01/01 00:21:26.80,IMU,-66.89,-43.46,-971.68,0.78,-1.30,-2.14,-16.65,6.45,-27.75,29.0
2000/01/01 00:21:26.90,IMU,-72.27,-34.67,-977.05,-0.73,-1.16,1.63,-16.05,7.20,-28.05,28.9
2000/01/01 00:21:27.00,IMU,-74.71,-55.18,-976.07,-0.15,0.65,-0.53,-18.15,8.25,-29.10,28.8
2000/01/01 00:21:27.10,IMU,-74.71,-30.27,-970.70,-0.30,1.02,1.73,-15.75,8.10,-29.70,29.1
2000/01/01 00:21:27.21,IMU,-55.66,-50.29,-967.77,-1.55,-2.02,1.20,-17.40,7.95,-29.85,29.1
2000/01/01 00:21:27.31,IMU,-62.50,-46.39,-971.68,-0.13,-0.40,3.57,-16.20,7.35,-28.20,29.0
2000/01/01 00:21:27.41,IMU,-72.27,-38.09,-964.36,0.15,-0.61,2.99,-16.05,7.50,-29.10,29.1
2000/01/01 00:21:27.51,IMU,-59.08,-45.90,-963.87,-0.82,1.50,-1.66,-17.10,7.50,-29.10,28.8
2000/01/01 00:21:27.62,IMU,-65.43,-44.92,-970.70,-1.19,-0.89,1.56,-19.35,4.80,-24.30,29.0
2000/01/01 00:21:27.72,IMU,-58.59,-41.02,-969.73,-0.34,-0.73,-1.82,-16.35,7.20,-30.15,28.8
2000/01/01 00:21:27.82,IMU,-67.87,-41.02,-954.10,-1.12,-1.87,2.81,-17.25,7.65,-29.25,28.9
2000/01/01 00:21:27.92,IMU,-62.99,-43.46,-963.38,-1.97,0.65,-1.18,-16.05,8.25,-29.10,28.8
2000/01/01 00:21:28.02,IMU,-64.94,-51.27,-963.87,-0.88,2.56,0.96,-15.30,7.50,-28.05,28.8
2000/01/01 00:21:28.12,IMU,-74.71,-50.29,-971.68,-2.09,-0.07,0.35,-16.65,6.75,-28.80,29.0
2000/01/01 00:21:28.22,IMU,-63.96,-40.53,-973.14,-0.80,0.92,1.76,-15.75,8.10,-29.25,28.9
2000/01/01 00:21:28.32,IMU,-62.50,-49.80,-971.19,-1.05,-3.06,-2.43,-15.60,7.50,-28.80,28.9
2000/01/01 00:21:28.42,IMU,-60.55,-50.29,-965.33,-0.63,-1.90,0.22,-16.05,7.50,-29.55,28.8
2000/01/01 00:21:28.52,IMU,-60.06,-37.11,-970.21,0.25,-2.08,3.02,-16.50,8.40,-29.70,28.9
2000/01/01 00:21:28.62,IMU,-60.55,-43.95,-967.77,-0.51,-0.66,1.67,-16.95,6.60,-28.95,28.9
2000/01/01 00:21:28.72,IMU,-69.34,-51.27,-962.40,-1.45,0.08,1.89,-16.05,7.95,-29.10,29.0
2000/01/01 00:21:28.83,IMU,-63.48,-44.43,-963.87,-0.61,0.19,-1.48,-17.10,6.75,-28.35,28.7
2000/01/01 00:21:28.93,IMU,-58.11,-40.53,-973.63,-0.80,-2.53,-0.27,-16.50,8.85,-27.90,28.9
2000/01/01 00:21:29.03,IMU,-70.31,-41.02,-970.21,0.12,1.96,1.20,-16.20,6.90,-29.25,28.7
2000/01/01 00:21:29.13,IMU,-72.75,-33.69,-970.70,0.18,-3.88,0.43,-16.20,7.65,-28.65,29.0
2000/01/01 00:21:29.23,IMU,-58.11,-49.80,-961.91,-0.60,-0.15,1.16,-18.00,7.65,-28.65,28.8
2000/01/01 00:21:29.33,IMU,-72.27,-50.29,-969.24,-1.08,-1.67,2.31,-17.55,8.10,-29.25,28.7
2000/01/01 00:21:29.43,IMU,-70.80,-56.15,-967.29,-1.13,-0.89,0.76,-16.65,8.70,-29.55,28.8
2000/01/01 00:21:29.53,IMU,-67.38,-49.32,-966.31,-0.19,-1.29,-0.17,-15.60,6.75,-29.55,28.8
2000/01/01 00:21:29.63,IMU,-69.34,-42.97,-979.98,-1.32,-2.06,0.17,-16.95,6.90,-28.65,28.6
2000/01/01 00:21:29.73,IMU,-62.99,-36.13,-957.52,-0.01,-1.56,-2.15,-16.35,7.20,-29.10,29.1
2000/01/01 00:21:29.83,IMU,-64.45,-43.46,-965.33,-0.98,-0.90,-0.39,-16.20,7.65,-29.25,29.0
2000/01/01 00:21:29.93,IMU,-58.11,-44.43,-968.75,-0.96,-1.25,-0.50,-15.45,6.90,-28.95,28.8
2000/01/01 00:21:30.03,IMU,-60.55,-41.50,-972.17,-0.45,-0.55,0.55,-16.20,6.90,-28.95,29.0
2000/01/01 00:21:30.13,IMU,-50.29,-43.95,-966.80,-2.34,-0.71,1.60,-17.10,8.70,-30.15,28.9
2000/01/01 00:21:30.23,IMU,-63.96,-43.46,-971.68,-1.55,-0.46,1.87,-16.95,8.40,-28.65,29.0
2000/01/01 00:21:30.34,IMU,-52.25,-43.46,-972.66,-1.81,-1.07,0.24,-16.50,8.10,-28.95,28.7
2000/01/01 00:21:30.44,IMU,-44.92,-49.80,-968.75,1.11,1.47,-1.82,-17.10,8.25,-29.85,28.6
2000/01/01 00:21:30.54,IMU,-69.82,-48.83,-964.84,-0.39,-3.40,-0.03,-16.50,7.65,-28.20,28.9
2000/01/01 00:21:30.64,IMU,-66.41,-40.53,-971.19,-1.44,-1.04,0.61,-17.25,7.35,-28.95,29.0
2000/01/01 00:21:30.74,IMU,-70.31,-41.99,-979.98,0.41,1.62,2.57,-16.20,8.10,-28.20,28.8
2000/01/01 00:21:30.84,IMU,-66.41,-46.39,-970.70,-0.02,-0.89,0.54,-15.60,6.45,-28.80,28.9
2000/01/01 00:21:30.94,IMU,-73.73,-39.55,-957.52,-0.92,-2.34,-0.35,-16.95,8.10,-29.25,28.6
2000/01/01 00:21:31.04,IMU,-57.13,-46.88,-968.26,-2.23,-2.08,-0.53,-16.35,7.95,-28.80,29.1
2000/01/01 00:21:31.14,IMU,-72.75,-31.25,-967.29,-0.82,-1.53,-2.54,-16.65,7.20,-28.35,28.9
2000/01/01 00:21:31.24,IMU,-77.64,-45.41,-971.19,-1.06,0.10,-0.08,-16.65,7.95,-29.55,28.9
2000/01/01 00:21:31.34,IMU,-58.11,-40.53,-965.82,0.50,0.37,-0.87,-16.35,7.95,-28.80,28.9
2000/01/01 00:21:31.44,IMU,-69.82,-31.74,-964.84,-2.11,-3.12,-0.09,-16.35,7.95,-29.10,28.9
2000/01/01 00:21:31.54,IMU,-56.64,-48.34,-957.52,-0.07,-1.15,-1.65,-16.50,8.85,-28.65,28.9
2000/01/01 00:21:31.64,IMU,-72.27,-53.71,-963.87,-2.49,0.73,2.01,-16.35,7.50,-29.55,29.1
2000/01/01 00:21:31.74,IMU,-68.36,-25.39,-980.47,-1.07,0.27,-0.92,-16.05,7.20,-28.35,28.8
2000/01/01 00:21:31.85,IMU,-62.50,-48.34,-970.21,-0.74,-2.38,-0.63,-17.85,7.50,-28.05,28.6
2000/01/01 00:21:31.95,IMU,-63.48,-38.57,-962.40,-0.33,-1.38,1.17,-15.45,8.85,-29.25,28.7
2000/01/01 00:21:32.05,IMU,-63.96,-31.74,-965.33,0.88,0.85,-1.48,-15.60,8.70,-28.80,28.8
2000/01/01 00:21:32.15,IMU,-76.66,-45.41,-970.70,-0.72,0.05,-1.13,-17.10,7.50,-30.90,29.1
2000/01/01 00:21:32.25,IMU,-50.78,-40.04,-961.91,0.31,-2.18,2.29,-17.10,7.20,-28.80,29.0
2000/01/01 00:21:32.35,IMU,-66.89,-56.64,-960.94,-3.60,-1.42,0.00,-17.25,8.85,-29.25,29.0
2000/01/01 00:21:32.45,IMU,-73.73,-40.04,-974.61,-0.13,-2.47,0.73,-16.35,7.20,-29.10,29.0
2000/01/01 00:21:32.55,IMU,-72.27,-48.34,-981.45,0.42,-1.03,2.28,-15.60,7.50,-29.55,29.0
2000/01/01 00:21:32.65,IMU,-62.01,-40.04,-959.96,0.74,-0.24,1.36,-15.75,6.60,-28.20,28.8
2000/01/01 00:21:32.75,IMU,-64.94,-45.90,-970.70,0.37,-0.50,3.40,-16.95,8.40,-29.70,28.9
2000/01/01 00:21:32.85,IMU,-74.71,-41.50,-972.17,-0.01,-0.78,0.49,-17.40,6.45,-29.55,29.0
2000/01/01 00:21:32.95,IMU,-62.99,-50.78,-964.84,-0.56,0.07,1.23,-15.75,7.35,-28.95,28.4
2000/01/01 00:21:33.05,IMU,-68.36,-40.04,-962.40,0.73,-0.42,-0.49,-15.75,7.65,-30.00,28.7
2000/01/01 00:21:33.15,IMU,-78.61,-49.32,-975.10,-1.47,-0.89,0.29,-16.65,8.25,-28.80,28.9
2000/01/01 00:21:33.25,IMU,-80.08,-43.46,-980.96,-0.80,-0.19,0.93,-16.65,7.50,-28.80,29.0
2000/01/01 00:21:33.36,IMU,-60.55,-50.29,-965.33,-1.86,0.05,-1.31,-14.70,7.35,-29.70,28.7
2000/01/01 00:21:33.46,IMU,-64.94,-43.46,-970.70,-1.54,0.24,1.57,-16.95,8.40,-28.65,28.8
2000/01/01 00:21:33.56,IMU,-65.43,-44.92,-965.82,-1.14,-0.42,-0.03,-17.10,7.20,-29.55,28.8
2000/01/01 00:21:33.66,IMU,-60.06,-46.39,-971.68,-0.89,-2.40,0.64,-17.25,7.35,-28.95,29.0
2000/01/01 00:21:33.76,IMU,-67.38,-49.80,-964.84,-2.07,-1.91,0.04,-15.15,8.85,-29.25,28.8
2000/01/01 00:21:33.86,IMU,-61.52,-31.25,-975.59,-0.53,1.40,0.58,-15.45,8.10,-29.25,28.8
2000/01/01 00:21:33.96,IMU,-62.01,-47.85,-962.89,-0.62,-0.10,-0.21,-17.25,7.65,-28.95,28.9
2000/01/01 00:21:34.06,IMU,-63.48,-55.66,-962.89,-2.12,0.17,-0.05,-17.40,7.50,-29.10,28.8
2000/01/01 00:21:34.16,IMU,-70.31,-46.39,-963.38,-2.10,-2.08,-2.43,-17.55,8.40,-30.00,28.7
2000/01/01 00:21:34.26,IMU,-65.43,-44.43,-972.17,0.73,-1.79,0.96,-17.85,6.45,-30.15,29.0
2000/01/01 00:21:34.36,IMU,-82.03,-39.06,-972.66,-0.15,3.78,0.39,-15.75,9.15,-28.65,28.9
2000/01/01 00:21:34.46,IMU,-76.66,-40.53,-968.75,-0.21,-1.85,-2.08,-16.50,8.10,-29.25,28.9
2000/01/01 00:21:34.56,IMU,-81.05,-40.53,-974.12,-1.40,0.43,1.60,-18.30,7.65,-28.95,29.0
2000/01/01 00:21:34.66,IMU,-68.85,-47.36,-969.73,-0.33,-1.79,0.33,-16.35,7.95,-29.55,28.8
2000/01/01 00:21:34.76,IMU,-62.50,-47.85,-968.75,1.22,-1.44,-1.34,-18.75,5.85,-26.40,29.0
2000/01/01 00:21:34.87,IMU,-77.64,-41.50,-957.52,-2.18,0.36,0.31,-15.60,8.25,-28.80,28.7
2000/01/01 00:21:34.97,IMU,-62.01,-43.95,-978.52,0.71,-0.91,1.65,-16.50,6.90,-28.20,28.8
2000/01/01 00:21:35.07,IMU,-64.94,-46.88,-960.45,-0.05,-2.14,-0.01,-16.50,7.65,-28.65,28.9
2000/01/01 00:21:35.17,IMU,-76.17,-42.97,-967.77,-1.28,-0.53,-1.34,-17.40,7.95,-28.35,28.8
2000/01/01 00:21:35.27,IMU,-68.36,-43.95,-975.59,-1.96,0.28,0.73,-16.05,6.75,-28.35,28.8
2000/01/01 00:21:35.37,IMU,-71.29,-51.76,-965.82,-0.46,0.03,-1.85,-16.95,6.15,-28.65,28.8
2000/01/01 00:21:35.47,IMU,-70.31,-39.55,-964.36,-0.20,-0.95,0.06,-15.45,8.10,-27.90,29.0
2000/01/01 00:21:35.57,IMU,-64.94,-45.41,-965.82,-1.66,0.59,-2.40,-16.65,6.75,-29.10,28.8
2000/01/01 00:21:35.67,IMU,-56.64,-61.04,-975.59,0.84,-3.30,1.18,-17.85,7.50,-29.85,29.1
2000/01/01 00:21:35.77,IMU,-63.96,-42.97,-960.45,-2.26,0.09,-2.95,-15.60,6.45,-29.10,28.8
2000/01/01 00:21:35.87,IMU,-64.94,-39.06,-962.40,0.13,0.18,-0.99,-15.30,7.50,-28.80,28.7
2000/01/01 00:21:35.97,IMU,-73.24,-46.39,-965.82,-0.56,-2.00,0.37,-16.65,7.95,-29.55,28.9
2000/01/01 00:21:36.07,IMU,-57.62,-47.85,-955.57,-2.93,0.28,0.70,-15.75,6.15,-28.95,28.9
2000/01/01 00:21:36.17,IMU,-64.94,-43.46,-963.38,0.31,1.11,0.27,-17.10,9.30,-29.10,28.6
2000/01/01 00:21:36.27,IMU,-68.85,-48.83,-971.68,-1.27,0.98,-0.07,-16.20,6.60,-30.00,28.8
2000/01/01 00:21:36.38,IMU,-66.89,-55.66,-974.12,-1.16,-0.95,0.51,-16.95,8.85,-28.20,28.7
2000/01/01 00:21:36.48,IMU,-69.34,-44.43,-976.56,-1.05,-1.43,-2.38,-16.65,8.70,-30.15,28.9
2000/01/01 00:21:36.58,IMU,-66.41,-38.09,-970.21,-1.15,0.52,-0.46,-15.45,8.40,-28.20,29.0
2000/01/01 00:21:36.68,IMU,-53.22,-49.80,-968.75,-3.05,-1.50,-1.26,-16.95,7.65,-29.70,28.6
2000/01/01 00:21:36.79,IMU,-73.24,-47.85,-974.12,-0.33,-1.52,-0.76,-19.65,5.25,-24.15,28.9
2000/01/01 00:21:36.89,IMU,-60.06,-42.97,-964.36,-0.46,0.40,1.28,-16.20,6.90,-28.65,28.9
2000/01/01 00:21:36.99,IMU,-67.87,-41.02,-973.63,0.50,-0.15,-1.40,-16.05,6.75,-29.55,28.8
2000/01/01 00:21:37.09,IMU,-63.96,-39.06,-972.17,-1.16,-0.91,2.17,-15.75,6.90,-28.20,28.6
2000/01/01 00:21:37.19,IMU,-69.82,-42.48,-972.66,-1.99,0.52,0.93,-16.65,8.70,-28.35,29.0
2000/01/01 00:21:37.29,IMU,-58.11,-54.20,-969.24,-0.92,-1.91,3.44,-17.25,7.65,-29.70,28.8
2000/01/01 00:21:37.39,IMU,-65.92,-40.53,-973.63,-0.73,2.30,2.68,-16.65,7.20,-28.05,28.6
2000/01/01 00:21:37.49,IMU,-69.82,-38.09,-974.61,-0.02,-2.27,-1.10,-16.35,7.20,-28.80,28.6
2000/01/01 00:21:37.59,IMU,-57.62,-46.39,-966.31,-0.24,-1.74,1.51,-15.75,7.65,-28.95,28.8
2000/01/01 00:21:37.69,IMU,-58.59,-50.29,-981.45,-0.77,-1.06,-1.31,-17.10,7.95,-28.80,28.8
2000/01/01 00:21:37.79,IMU,-78.61,-39.06,-971.19,-1.27,1.19,-0.08,-16.35,7.20,-28.80,28.7
2000/01/01 00:21:37.89,IMU,-62.01,-44.92,-969.73,-1.55,-0.46,4.06,-14.70,6.90,-28.95,29.0
2000/01/01 00:21:38.00,IMU,-59.57,-46.88,-975.59,-0.29,-2.13,-0.35,-17.40,7.20,-29.85,28.6
2000/01/01 00:21:38.10,IMU,-64.94,-28.32,-964.84,-1.39,-0.37,1.38,-16.50,7.65,-28.95,29.1
2000/01/01 00:21:38.20,IMU,-67.87,-37.11,-971.68,-1.21,-0.34,2.49,-15.45,6.90,-30.30,28.9
2000/01/01 00:21:38.30,IMU,-64.45,-41.02,-969.24,0.20,1.65,-1.24,-16.65,8.70,-28.35,28.9
2000/01/01 00:21:38.40,IMU,-68.85,-32.71,-965.82,0.63,-1.92,-0.55,-17.25,8.10,-29.25,28.8
2000/01/01 00:21:38.50,IMU,-59.08,-44.92,-972.17,-1.09,-1.12,0.27,-15.75,8.40,-28.20,28.8
2000/01/01 00:21:38.60,IMU,-69.34,-62.01,-973.63,-0.63,1.22,1.82,-16.50,8.10,-28.65,28.9
2000/01/01 00:21:38.70,IMU,-67.87,-51.27,-969.73,-0.26,-2.28,2.06,-17.25,8.10,-28.95,28.9
2000/01/01 00:21:38.80,IMU,-59.08,-35.16,-955.08,-2.23,-0.21,0.82,-17.10,8.70,-28.05,28.6
2000/01/01 00:21:38.90,IMU,-65.43,-37.60,-974.12,0.50,-1.23,-0.16,-17.25,8.40,-29.25,28.7
2000/01/01 00:21:39.00,IMU,-71.29,-41.99,-971.68,0.55,1.15,-1.21,-17.10,8.70,-28.80,28.8
2000/01/01 00:21:39.10,IMU,-65.92,-44.92,-959.47,0.99,-0.53,-2.87,-16.35,9.30,-27.75,29.0
2000/01/01 00:21:39.20,IMU,-71.78,-52.25,-965.33,-0.45,0.34,0.92,-17.55,8.10,-29.25,28.9
2000/01/01 00:21:39.30,IMU,-61.52,-41.02,-960.94,-1.53,0.24,-1.81,-16.50,6.90,-27.90,28.8
2000/01/01 00:21:39.40,IMU,-73.73,-38.09,-963.38,-1.51,-1.73,1.98,-17.40,8.25,-29.85,28.8
2000/01/01 00:21:39.50,IMU,-68.36,-56.15,-974.61,-1.27,-0.69,-1.53,-17.40,8.70,-30.60,29.0
2000/01/01 00:21:39.61,IMU,-67.87,-40.53,-969.73,0.02,0.30,0.27,-16.20,6.90,-27.90,28.8
2000/01/01 00:21:39.71,IMU,-63.96,-44.92,-965.33,-0.33,0.27,2.10,-15.60,7.50,-28.80,28.8
2000/01/01 00:21:39.81,IMU,-72.27,-42.97,-977.54,0.26,-0.06,1.96,-16.65,7.95,-29.10,28.6
2000/01/01 00:21:39.91,IMU,-83.01,-40.04,-961.43,-0.60,0.86,-1.05,-15.45,7.35,-28.65,28.7
2000/01/01 00:21:40.01,IMU,-56.64,-32.23,-974.61,0.27,-0.91,1.79,-17.40,6.75,-28.80,28.9
2000/01/01 00:21:40.11,IMU,-68.85,-46.39,-973.14,0.26,-1.01,1.23,-16.20,7.65,-30.00,29.1
2000/01/01 00:21:40.21,IMU,-65.43,-51.76,-964.36,-0.85,1.08,0.67,-16.65,7.50,-28.80,28.9
2000/01/01 00:21:40.31,IMU,-67.38,-49.80,-964.36,-1.76,-0.85,-1.81,-17.40,8.25,-28.35,28.7
2000/01/01 00:21:40.41,IMU,-48.83,-35.64,-973.63,0.98,0.77,1.53,-17.10,7.95,-28.80,29.0
2000/01/01 00:21:40.51,IMU,-57.62,-37.60,-967.77,-0.21,-0.90,-2.79,-15.15,6.90,-27.60,28.9
2000/01/01 00:21:40.61,IMU,-58.11,-47.36,-956.54,-1.69,-0.48,2.78,-16.65,8.25,-29.10,28.7
2000/01/01 00:21:40.71,IMU,-66.89,-41.02,-970.21,-2.24,-1.60,-2.82,-16.50,6.90,-29.70,29.0
2000/01/01 00:21:40.81,IMU,-66.41,-41.50,-964.36,-3.06,-1.11,-0.56,-16.65,8.70,-28.35,28.5
2000/01/01 00:21:40.91,IMU,-75.20,-36.62,-968.75,-0.15,-1.81,2.49,-16.95,8.10,-29.25,28.7
2000/01/01 00:21:41.02,IMU,-72.27,-46.39,-965.82,-2.67,0.24,0.42,-14.70,8.85,-29.25,28.9
2000/01/01 00:21:41.12,IMU,-71.29,-41.99,-968.75,-2.73,-2.06,0.57,-16.95,7.35,-28.65,28.9
2000/01/01 00:21:41.22,IMU,-68.36,-44.43,-969.24,0.09,-3.06,0.89,-16.20,7.65,-29.25,29.1
2000/01/01 00:21:41.32,IMU,-67.87,-41.50,-965.82,-1.21,-2.11,-1.56,-15.45,6.90,-28.65,28.6
2000/01/01 00:21:41.42,IMU,-62.01,-40.53,-971.68,-1.43,-2.41,0.70,-15.60,8.25,-30.15,28.9
2000/01/01 00:21:41.52,IMU,-71.29,-59.57,-965.82,-1.41,-3.44,-0.56,-15.45,8.10,-27.90,28.8
2000/01/01 00:21:41.62,IMU,-58.59,-40.53,-961.43,2.22,0.84,-0.82,-16.20,7.65,-28.95,28.8
2000/01/01 00:21:41.72,IMU,-69.82,-39.55,-979.00,1.50,-2.20,3.04,-18.00,6.60,-29.25,28.9
2000/01/01 00:21:41.82,IMU,-61.04,-53.22,-969.73,-1.36,0.33,3.15,-17.25,6.15,-28.95,28.7
2000/01/01 00:21:41.92,IMU,-69.34,-44.43,-978.03,0.90,0.06,1.54,-15.60,8.70,-28.80,28.7
2000/01/01 00:21:42.02,IMU,-72.75,-40.53,-966.31,0.43,-0.14,1.35,-16.35,7.50,-28.35,29.1
2000/01/01 00:21:42.12,IMU,-66.89,-59.08,-968.75,-0.09,-3.24,2.84,-17.10,7.20,-28.80,29.0
2000/01/01 00:21:42.22,IMU,-61.04,-47.36,-974.61,-1.55,0.30,1.52,-16.35,7.50,-28.35,29.1
2000/01/01 00:21:42.32,IMU,-57.62,-40.04,-965.33,-0.93,-1.79,0.85,-15.75,6.90,-28.95,28.6
2000/01/01 00:21:42.42,IMU,-67.87,-41.02,-973.14,0.07,-1.76,2.85,-15.75,7.65,-28.65,29.0
2000/01/01 00:21:42.52,IMU,-66.89,-42.97,-965.82,-0.34,-0.99,2.29,-15.75,7.35,-30.75,28.8
2000/01/01 00:21:42.63,IMU,-59.57,-30.27,-969.73,-0.71,-1.73,0.62,-16.35,7.95,-29.55,28.9
2000/01/01 00:21:42.73,IMU,-66.89,-50.29,-977.05,-2.18,-3.32,4.82,-16.65,8.70,-29.10,28.9
2000/01/01 00:21:42.83,IMU,-67.87,-53.22,-979.49,-1.55,-2.28,-0.73,-17.10,9.00,-29.10,28.8
2000/01/01 00:21:42.93,IMU,-62.50,-34.18,-964.84,-1.83,0.25,-0.22,-18.15,6.45,-25.95,28.7
2000/01/01 00:21:43.03,IMU,-55.66,-51.27,-975.59,-2.55,-0.20,-1.85,-17.10,7.50,-28.05,28.8
2000/01/01 00:21:43.13,IMU,-71.78,-51.76,-972.66,0.27,-2.95,0.26,-17.10,8.25,-29.10,29.1
2000/01/01 00:21:43.23,IMU,-55.18,-42.48,-971.68,-1.11,-2.82,0.60,-16.65,7.20,-28.80,28.7
2000/01/01 00:21:43.33,IMU,-74.71,-50.78,-968.75,-0.98,-1.21,2.12,-17.10,8.70,-29.55,29.0
2000/01/01 00:21:43.43,IMU,-63.96,-43.95,-958.01,0.60,-0.33,0.50,-16.50,7.65,-30.75,28.8
2000/01/01 00:21:43.53,IMU,-66.41,-42.97,-977.54,1.01,0.84,-1.34,-16.95,7.65,-30.00,28.7
2000/01/01 00:21:43.63,IMU,-81.54,-43.46,-966.80,-1.10,-1.40,1.04,-17.40,6.75,-29.10,28.7
2000/01/01 00:21:43.73,IMU,-62.50,-31.25,-969.73,-2.66,-0.27,1.33,-17.10,7.95,-28.35,28.9
2000/01/01 00:21:43.83,IMU,-66.41,-45.90,-973.14,0.43,1.95,1.18,-16.50,8.10,-29.70,28.7
2000/01/01 00:21:43.93,IMU,-60.06,-30.27,-967.77,-0.30,0.02,-4.20,-15.75,6.60,-28.20,28.7
2000/01/01 00:21:44.04,IMU,-67.38,-30.76,-967.29,1.89,0.91,1.56,-17.85,9.75,-29.55,28.9
2000/01/01 00:21:44.14,IMU,-66.41,-38.57,-965.82,-3.39,-2.29,-2.20,-16.20,8.10,-29.70,29.0
2000/01/01 00:21:44.24,IMU,-59.57,-48.83,-980.96,0.02,-3.13,0.30,-17.10,8.25,-28.80,28.7
2000/01/01 00:21:44.34,IMU,-61.04,-44.92,-973.14,-1.05,-0.31,-1.84,-16.05,8.25,-28.80,28.7
2000/01/01 00:21:44.44,IMU,-65.43,-41.50,-967.29,-0.70,0.02,2.27,-15.75,7.65,-29.25,28.9
2000/01/01 00:21:44.54,IMU,-62.01,-39.06,-973.63,0.63,-0.26,-2.14,-16.05,7.95,-27.75,28.7
2000/01/01 00:21:44.64,IMU,-65.43,-39.06,-964.84,-3.21,-0.85,-1.54,-17.25,7.35,-28.65,28.7
2000/01/01 00:21:44.74,IMU,-65.43,-44.43,-966.31,-0.63,-0.06,0.65,-16.35,8.25,-29.55,29.0
2000/01/01 00:21:44.84,IMU,-67.38,-45.90,-963.87,-0.41,-0.51,-0.31,-15.75,7.35,-30.75,28.7
2000/01/01 00:21:44.95,IMU,-56.15,-41.02,-972.66,-0.54,-0.01,-2.08,-18.75,8.10,-25.35,28.6
2000/01/01 00:21:45.05,IMU,-62.01,-44.92,-974.61,0.94,-1.01,1.95,-16.95,7.35,-28.95,28.9
2000/01/01 00:21:45.15,IMU,-67.87,-54.69,-968.26,-0.60,-1.46,-1.52,-16.20,9.60,-29.70,28.9
2000/01/01 00:21:45.25,IMU,-59.08,-42.97,-960.94,-1.45,-1.34,-1.69,-18.00,6.90,-28.65,28.6
2000/01/01 00:21:45.35,IMU,-74.22,-52.73,-972.66,-2.34,-0.60,1.40,-16.35,7.20,-29.85,28.7
2000/01/01 00:21:45.45,IMU,-64.94,-50.29,-954.59,-0.42,0.54,-2.89,-16.35,8.25,-29.55,28.7
2000/01/01 00:21:45.56,IMU,-69.34,-42.97,-965.33,-3.21,-1.16,0.60,-17.25,9.15,-29.25,28.8
2000/01/01 00:21:45.66,IMU,-53.22,-62.01,-969.73,-0.95,-1.51,1.18,-17.25,8.85,-27.60,28.7
2000/01/01 00:21:45.76,IMU,-54.69,-44.92,-964.36,0.40,0.16,1.17,-16.20,6.60,-28.20,28.7
2000/01/01 00:21:45.86,IMU,-63.96,-49.80,-964.36,-0.95,-0.30,0.15,-15.45,7.35,-29.70,28.9
2000/01/01 00:21:45.96,IMU,-55.18,-45.41,-964.84,0.21,0.25,0.71,-15.75,7.65,-29.25,28.8
2000/01/01 00:21:46.06,IMU,-61.52,-37.11,-963.38,-3.18,-1.89,0.92,-16.35,7.95,-29.55,28.8
2000/01/01 00:21:46.16,IMU,-63.96,-47.36,-972.66,-0.05,0.21,-0.33,-16.05,6.45,-28.80,29.0
2000/01/01 00:21:46.26,IMU,-63.48,-43.46,-976.07,-0.42,0.63,-0.25,-16.05,8.25,-28.80,28.9
2000/01/01 00:21:46.36,IMU,-70.31,-57.62,-965.33,-1.66,-1.47,-0.54,-16.05,7.50,-28.80,28.9
2000/01/01 00:21:46.46,IMU,-68.36,-44.43,-977.54,1.34,-0.37,2.23,-16.65,6.75,-27.75,28.9
2000/01/01 00:21:46.56,IMU,-76.66,-30.76,-972.17,-3.21,-1.50,-2.23,-17.40,7.20,-29.10,28.8
2000/01/01 00:21:46.66,IMU,-76.17,-39.06,-966.80,-1.39,2.05,2.07,-17.25,7.65,-28.20,28.7
2000/01/01 00:21:46.76,IMU,-64.94,-34.18,-970.21,-1.55,-0.92,0.41,-16.35,7.95,-28.35,28.7
2000/01/01 00:21:46.86,IMU,-82.52,-48.83,-983.40,-0.03,0.30,-2.85,-16.65,7.50,-30.90,28.9
2000/01/01 00:21:46.96,IMU,-63.48,-39.55,-964.84,-0.76,-0.69,-0.10,-17.10,8.25,-29.55,28.9
2000/01/01 00:21:47.06,IMU,-76.17,-34.67,-969.24,-1.34,0.06,-1.49,-17.10,8.70,-29.10,28.8
2000/01/01 00:21:47.17,IMU,-65.43,-45.41,-969.73,0.18,0.21,0.60,-16.65,7.20,-29.10,28.6
2000/01/01 00:21:47.27,IMU,-67.87,-46.39,-962.40,-1.19,-2.85,1.11,-16.35,8.25,-28.80,28.9
2000/01/01 00:21:47.37,IMU,-59.57,-37.60,-980.47,-0.28,-1.95,-2.34,-17.85,7.95,-27.75,28.7
2000/01/01 00:21:47.47,IMU,-55.66,-39.55,-963.87,-1.68,-0.26,-0.47,-17.55,7.35,-27.60,28.9
2000/01/01 00:21:47.57,IMU,-52.73,-31.25,-980.96,-0.79,-0.82,0.62,-16.50,8.10,-27.90,28.6
2000/01/01 00:21:47.67,IMU,-68.36,-42.97,-969.24,-2.35,-0.19,1.81,-16.20,7.35,-29.25,28.7
2000/01/01 00:21:47.77,IMU,-57.62,-47.85,-960.45,-1.31,-1.76,2.37,-16.20,7.65,-29.25,28.9
2000/01/01 00:21:47.87,IMU,-77.64,-48.34,-967.77,-0.82,-4.05,1.65,-16.20,8.10,-30.00,28.9
2000/01/01 00:21:47.97,IMU,-62.01,-57.62,-971.19,0.08,0.56,2.77,-16.35,8.70,-29.10,28.8
2000/01/01 00:21:48.07,IMU,-66.41,-47.85,-968.26,-0.18,-2.19,1.51,-16.95,7.35,-30.00,28.6
2000/01/01 00:21:48.17,IMU,-56.64,-57.13,-968.75,-0.75,-0.67,3.02,-16.20,9.15,-27.60,28.8
2000/01/01 00:21:48.27,IMU,-68.36,-41.02,-973.63,-0.60,-2.23,-1.36,-15.30,8.70,-28.35,28.9
2000/01/01 00:21:48.37,IMU,-64.45,-49.80,-989.26,-0.55,-1.44,-0.73,-16.20,7.35,-29.25,28.8
2000/01/01 00:21:48.47,IMU,-72.27,-40.04,-975.10,0.21,-0.52,1.44,-16.35,9.75,-29.10,28.7
2000/01/01 00:21:48.58,IMU,-71.29,-53.71,-972.17,1.24,-0.44,0.69,-16.65,7.50,-29.10,28.6
2000/01/01 00:21:48.68,IMU,-74.22,-45.41,-967.29,-0.77,-0.42,1.50,-16.05,9.00,-29.10,28.9
2000/01/01 00:21:48.78,IMU,-63.48,-44.92,-969.24,-0.20,0.05,0.34,-17.25,8.40,-29.25,29.0
2000/01/01 00:21:48.88,IMU,-66.89,-41.02,-973.14,-1.93,1.59,2.21,-16.35,8.70,-28.80,28.8
2000/01/01 00:21:48.98,IMU,-56.64,-44.92,-968.26,-2.06,-0.99,2.27,-17.25,7.35,-28.65,28.8
2000/01/01 00:21:49.08,IMU,-54.69,-50.29,-982.91,-1.84,-1.62,-0.37,-16.65,7.95,-28.35,28.8
2000/01/01 00:21:49.18,IMU,-69.82,-42.97,-966.31,-0.63,-2.86,0.89,-16.95,7.35,-30.00,28.9
2000/01/01 00:21:49.28,IMU,-63.96,-56.15,-965.33,-0.37,-2.35,2.92,-16.65,7.20,-28.80,29.0
2000/01/01 00:21:49.38,IMU,-77.15,-40.04,-969.24,-0.51,-0.56,-0.53,-16.05,7.95,-29.85,28.7
2000/01/01 00:21:49.48,IMU,-69.34,-30.76,-960.94,-0.32,-4.76,1.62,-16.35,9.00,-30.15,28.8
2000/01/01 00:21:49.58,IMU,-81.05,-46.39,-960.94,-2.43,-1.02,-1.61,-16.35,9.00,-28.80,28.6
2000/01/01 00:21:49.68,IMU,-65.92,-37.11,-977.54,0.31,0.48,-0.62,-16.35,7.20,-29.55,28.8
2000/01/01 00:21:49.78,IMU,-61.04,-43.95,-963.38,-0.45,-1.64,-0.02,-17.55,8.10,-28.95,28.6
2000/01/01 00:21:49.88,IMU,-64.45,-32.23,-968.75,-3.40,-0.23,1.95,-16.95,7.65,-28.20,28.7
2000/01/01 00:21:49.98,IMU,-66.89,-49.80,-969.24,-1.21,0.35,-0.63,-17.40,7.95,-29.10,28.7
2000/01/01 00:21:50.09,IMU,-72.75,-36.62,-976.07,0.56,-1.06,0.63,-16.20,9.15,-29.70,28.8
2000/01/01 00:21:50.19,IMU,-74.71,-48.83,-966.80,-2.38,0.54,0.15,-16.05,7.50,-29.10,28.8
2000/01/01 00:21:50.29,IMU,-59.57,-41.99,-971.68,0.61,-1.66,0.90,-16.05,9.75,-27.75,28.4
2000/01/01 00:21:50.39,IMU,-55.66,-51.27,-967.77,1.24,-2.04,-0.06,-17.25,8.10,-28.95,28.6
2000/01/01 00:21:50.49,IMU,-54.20,-36.13,-989.26,-2.06,-1.37,-0.63,-16.05,8.25,-29.55,28.7
2000/01/01 00:21:50.59,IMU,-60.55,-38.57,-970.21,-0.42,-1.92,0.92,-17.40,7.20,-28.05,28.6
2000/01/01 00:21:50.69,IMU,-60.55,-50.78,-973.63,0.47,1.79,-0.99,-15.75,8.85,-28.95,28.6
2000/01/01 00:21:50.79,IMU,-61.04,-38.57,-971.19,-2.33,-2.40,0.93,-16.05,8.25,-28.35,28.9
2000/01/01 00:21:50.89,IMU,-70.80,-46.39,-971.19,-1.44,-0.15,2.67,-17.55,6.90,-30.00,28.6
2000/01/01 00:21:50.99,IMU,-69.82,-41.50,-961.43,-0.15,-0.02,-0.70,-16.35,7.95,-29.55,28.7
2000/01/01 00:21:51.09,IMU,-62.50,-48.83,-964.84,0.11,-1.50,-2.73,-17.25,7.35,-29.25,28.8
2000/01/01 00:21:51.19,IMU,-65.43,-37.60,-968.75,-2.18,-3.21,2.58,-16.20,6.90,-28.95,28.8
2000/01/01 00:21:51.29,IMU,-71.29,-47.85,-965.82,0.70,-1.85,-2.99,-18.15,7.20,-28.80,28.8
2000/01/01 00:21:51.39,IMU,-64.45,-42.48,-967.77,0.45,-1.19,-1.44,-17.25,7.65,-29.70,28.7
2000/01/01 00:21:51.49,IMU,-66.41,-35.16,-973.14,-1.71,-2.89,0.52,-16.35,7.50,-27.75,28.9
2000/01/01 00:21:51.60,IMU,-60.55,-49.32,-977.05,-1.35,-0.44,0.98,-17.25,6.15,-30.30,28.8
2000/01/01 00:21:51.70,IMU,-57.62,-41.02,-969.24,-2.27,1.38,0.34,-16.95,9.60,-28.65,28.6
2000/01/01 00:21:51.80,IMU,-60.55,-50.78,-973.63,-0.36,-0.22,1.07,-16.65,8.70,-29.10,28.8
2000/01/01 00:21:51.90,IMU,-68.36,-38.09,-967.29,-1.37,-1.17,-1.72,-16.20,6.90,-29.70,28.8
2000/01/01 00:21:52.00,IMU,-72.27,-45.90,-967.29,-1.76,0.12,0.68,-14.55,7.20,-28.80,28.6
2000/01/01 00:21:52.10,IMU,-61.52,-35.16,-969.24,-1.22,0.40,0.44,-21.45,5.70,-25.65,28.8
2000/01/01 00:21:52.20,IMU,-74.22,-35.64,-968.26,-1.98,-0.99,0.93,-17.40,8.25,-29.10,28.6
2000/01/01 00:21:52.30,IMU,-61.04,-49.32,-967.29,0.55,0.25,0.74,-16.20,8.10,-29.70,28.7
2000/01/01 00:21:52.40,IMU,-91.80,-49.32,-963.87,-2.34,0.37,-3.76,-16.05,8.70,-28.80,28.8
2000/01/01 00:21:52.50,IMU,-63.48,-31.74,-969.73,-3.21,-2.60,1.65,-16.95,8.10,-28.65,28.9
2000/01/01 00:21:52.60,IMU,-79.10,-49.80,-966.31,-1.12,-2.00,2.05,-17.55,9.90,-29.25,28.6
2000/01/01 00:21:52.70,IMU,-54.20,-42.97,-971.19,-1.95,-2.10,-0.06,-16.20,7.65,-28.20,28.8
2000/01/01 00:21:52.80,IMU,-66.89,-40.04,-966.31,-0.58,-0.68,0.14,-16.05,8.70,-27.75,28.6
2000/01/01 00:21:52.90,IMU,-64.94,-47.85,-972.17,0.05,-2.27,1.61,-15.75,7.65,-30.00,28.9
2000/01/01 00:21:53.00,IMU,-50.78,-43.46,-951.66,-0.52,1.86,1.53,-15.75,8.10,-29.70,28.6
2000/01/01 00:21:53.11,IMU,-73.24,-33.20,-970.70,-0.74,-1.61,-0.21,-21.00,4.50,-24.15,28.8
2000/01/01 00:21:53.21,IMU,-65.92,-45.41,-966.80,-0.35,-1.52,-0.76,-16.95,7.65,-28.20,28.9
2000/01/01 00:21:53.31,IMU,-65.92,-46.88,-972.66,-0.63,-0.81,2.79,-16.95,6.60,-29.70,28.9
2000/01/01 00:21:53.41,IMU,-59.57,-48.34,-966.31,-1.82,-0.05,0.72,-17.40,8.25,-30.60,28.6
2000/01/01 00:21:53.51,IMU,-68.36,-39.55,-963.38,-0.80,-1.11,-0.50,-17.25,7.65,-30.00,28.7
2000/01/01 00:21:53.61,IMU,-63.96,-37.11,-974.12,0.02,-0.30,-0.29,-16.05,7.95,-29.85,28.9
2000/01/01 00:21:53.71,IMU,-71.78,-43.46,-968.26,-1.36,-1.73,1.35,-17.55,8.10,-28.95,28.8
2000/01/01 00:21:53.81,IMU,-52.25,-33.20,-969.73,-0.92,-3.38,3.53,-16.95,6.90,-28.65,28.7
2000/01/01 00:21:53.91,IMU,-72.75,-27.83,-964.84,1.27,-1.53,2.22,-15.75,8.40,-30.30,28.6
2000/01/01 00:21:54.01,IMU,-63.96,-36.62,-969.73,-1.62,-1.85,-2.92,-17.40,7.50,-29.85,29.0
2000/01/01 00:21:54.11,IMU,-66.89,-40.04,-971.19,-0.93,-0.60,0.46,-18.15,8.25,-29.10,28.7
2000/01/01 00:21:54.22,IMU,-75.68,-42.48,-969.24,-1.88,0.21,-0.54,-16.50,7.65,-29.70,28.8
2000/01/01 00:21:54.32,IMU,-71.78,-44.43,-973.63,-3.23,1.57,-3.23,-16.35,7.20,-28.35,28.7
2000/01/01 00:21:54.42,IMU,-68.36,-32.71,-967.29,0.52,-2.33,-2.22,-16.05,9.30,-27.75,28.8
2000/01/01 00:21:54.54,IMU,-52.73,-34.18,-969.24,-0.24,-1.71,1.28,-17.10,7.95,-29.85,28.7
2000/01/01 00:21:54.64,IMU,-56.64,-38.57,-973.14,-1.19,-1.11,-2.16,-16.95,8.85,-28.65,28.8
2000/01/01 00:21:54.74,IMU,-70.80,-47.85,-971.19,-0.69,-0.02,-0.03,-16.50,7.35,-29.70,28.6
2000/01/01 00:21:54.84,IMU,-74.71,-45.41,-973.63,-0.56,-1.11,-2.08,-15.60,6.75,-29.10,28.6
2000/01/01 00:21:54.94,IMU,-54.69,-52.25,-959.47,-0.78,-0.27,-1.03,-17.25,6.60,-28.95,28.9
2000/01/01 00:21:55.04,IMU,-64.45,-58.59,-968.26,-0.66,2.33,-0.73,-16.20,6.15,-30.30,28.7
2000/01/01 00:21:55.15,IMU,-61.52,-40.53,-958.98,-0.37,-1.56,0.62,-16.05,8.25,-29.85,28.7
2000/01/01 00:21:55.25,IMU,-61.52,-43.46,-966.80,-2.31,-0.62,0.15,-16.95,7.65,-30.30,28.8
2000/01/01 00:21:55.35,IMU,-68.85,-41.02,-951.17,-1.06,-2.80,1.24,-17.85,8.70,-28.80,28.8
2000/01/01 00:21:55.45,IMU,-54.20,-47.36,-970.21,-0.66,-1.92,0.96,-16.35,6.75,-29.10,28.9
2000/01/01 00:21:55.55,IMU,-55.18,-44.43,-979.00,-0.65,0.60,-1.11,-16.20,7.35,-28.65,28.7
2000/01/01 00:21:55.65,IMU,-58.59,-52.73,-963.38,0.21,1.68,0.01,-16.20,8.85,-27.90,28.8
2000/01/01 00:21:55.75,IMU,-65.92,-68.36,-977.54,-1.75,-1.43,-2.78,-16.35,7.50,-27.75,28.7
2000/01/01 00:21:55.85,IMU,-64.94,-32.23,-974.12,-0.70,1.33,1.60,-15.75,8.85,-29.25,28.7
2000/01/01 00:21:55.95,IMU,-59.08,-45.41,-965.33,0.17,0.85,-0.33,-16.20,8.40,-29.70,28.5
2000/01/01 00:21:56.05,IMU,-61.04,-44.43,-979.98,-1.29,-0.34,-0.18,-16.50,7.65,-27.90,29.0
2000/01/01 00:21:56.15,IMU,-64.45,-45.41,-976.56,-1.56,-1.85,3.80,-16.50,7.65,-28.20,28.7
2000/01/01 00:21:56.25,IMU,-74.71,-39.06,-967.29,-1.94,0.62,-0.99,-16.35,9.75,-29.10,28.6
2000/01/01 00:21:56.35,IMU,-69.34,-45.90,-965.82,0.26,0.20,-0.74,-16.65,7.95,-28.35,28.8
2000/01/01 00:21:56.45,IMU,-70.80,-43.46,-972.66,0.11,-0.21,0.39,-16.65,7.95,-29.10,28.5
2000/01/01 00:21:56.56,IMU,-70.31,-41.02,-957.03,0.38,-1.30,0.18,-16.20,8.40,-28.20,29.0
2000/01/01 00:21:56.66,IMU,-69.34,-38.57,-977.05,-1.44,-0.18,0.05,-16.35,7.95,-30.15,28.8
2000/01/01 00:21:56.76,IMU,-56.15,-30.76,-973.63,-1.90,1.33,2.00,-16.50,7.65,-28.65,28.7
2000/01/01 00:21:56.86,IMU,-53.71,-34.18,-975.10,-0.73,-0.31,0.35,-15.75,7.35,-29.25,28.7
2000/01/01 00:21:56.96,IMU,-54.20,-38.57,-971.68,-0.86,-0.70,0.41,-16.95,8.40,-28.65,28.6
2000/01/01 00:21:57.06,IMU,-62.50,-41.02,-973.14,-1.03,2.06,-0.26,-16.65,9.75,-29.85,28.8
2000/01/01 00:21:57.16,IMU,-70.80,-42.48,-954.10,-1.60,-3.47,1.08,-17.25,6.15,-28.95,28.9
2000/01/01 00:21:57.26,IMU,-54.20,-43.95,-969.73,0.76,-2.16,-2.37,-17.25,7.35,-30.30,28.8
2000/01/01 00:21:57.36,IMU,-52.25,-43.95,-968.26,-0.82,-0.56,0.79,-16.95,7.65,-28.20,28.6
2000/01/01 00:21:57.46,IMU,-56.64,-49.32,-966.80,-1.10,-1.08,2.11,-18.15,8.25,-28.35,28.8
2000/01/01 00:21:57.56,IMU,-64.94,-48.83,-972.17,-1.24,-1.42,2.13,-16.20,6.60,-30.00,28.7
2000/01/01 00:21:57.66,IMU,-65.92,-34.67,-982.42,1.73,-1.66,-0.50,-15.15,8.85,-30.30,28.9
2000/01/01 00:21:57.76,IMU,-61.52,-48.83,-974.12,-0.35,-0.67,0.59,-18.00,8.85,-28.95,28.7
2000/01/01 00:21:57.86,IMU,-69.82,-41.50,-965.82,-0.69,-0.64,-0.95,-16.65,6.45,-29.10,28.8
2000/01/01 00:21:57.96,IMU,-70.31,-43.46,-983.40,-0.05,-1.64,1.01,-14.85,7.50,-29.55,28.6
2000/01/01 00:21:58.06,IMU,-61.52,-47.36,-970.70,-2.37,-3.46,-1.72,-17.25,7.35,-29.70,28.8
2000/01/01 00:21:58.17,IMU,-72.27,-30.76,-977.54,-2.58,0.14,-0.66,-16.95,7.35,-28.20,28.9
2000/01/01 00:21:58.27,IMU,-73.24,-57.62,-967.77,0.15,0.95,-1.09,-15.30,9.00,-27.75,28.7
2000/01/01 00:21:58.37,IMU,-65.92,-39.06,-973.63,-0.17,-1.15,-1.76,-16.50,7.35,-29.70,28.6
2000/01/01 00:21:58.47,IMU,-62.50,-37.11,-972.66,0.49,-0.75,-2.06,-16.50,8.10,-28.95,28.9
2000/01/01 00:21:58.57,IMU,-54.20,-39.55,-969.24,-1.54,-1.34,0.36,-15.30,7.95,-28.05,28.7
2000/01/01 00:21:58.67,IMU,-71.78,-46.88,-965.82,-0.85,-0.15,-2.56,-15.60,9.00,-29.85,28.5
2000/01/01 00:21:58.77,IMU,-69.82,-39.55,-962.40,1.98,-0.92,1.37,-16.20,8.10,-29.70,28.6
2000/01/01 00:21:58.87,IMU,-69.34,-40.53,-961.91,-0.05,-1.23,1.20,-17.25,7.65,-30.30,28.7
2000/01/01 00:21:58.97,IMU,-74.22,-39.06,-955.08,-0.19,-0.84,-1.70,-17.10,6.75,-28.35,28.6
2000/01/01 00:21:59.07,IMU,-64.94,-45.90,-973.14,-2.02,-0.30,-0.22,-16.50,7.65,-28.95,28.6
2000/01/01 00:21:59.17,IMU,-69.82,-45.41,-961.91,-0.41,-0.50,-1.63,-16.35,7.95,-29.10,28.7
2000/01/01 00:21:59.27,IMU,-62.01,-38.09,-956.05,-0.55,2.81,-2.23,-16.35,7.20,-28.35,28.7
2000/01/01 00:21:59.37,IMU,-73.73,-37.60,-958.50,-0.05,0.04,1.13,-15.75,8.10,-29.25,28.7
2000/01/01 00:21:59.47,IMU,-78.61,-44.92,-976.56,-2.38,-1.28,-1.66,-17.10,6.45,-29.85,28.7
2000/01/01 00:21:59.58,IMU,-61.52,-45.41,-967.29,-0.57,-0.79,1.20,-16.50,9.15,-30.30,28.7
2000/01/01 00:21:59.68,IMU,-54.69,-53.71,-973.63,1.30,-2.30,-0.16,-17.25,6.60,-27.90,28.7
2000/01/01 00:21:59.78,IMU,-60.06,-45.90,-976.56,-1.17,-0.56,-2.34,-17.40,6.75,-27.75,28.9
2000/01/01 00:21:59.88,IMU,-66.41,-36.13,-953.13,-0.58,0.41,1.46,-16.20,7.65,-28.20,28.8
2000/01/01 00:21:59.98,IMU,-60.06,-40.53,-962.89,-0.27,-0.47,1.62,-16.65,7.95,-29.10,28.7
2000/01/01 00:22:00.08,IMU,-60.55,-53.22,-962.89,-0.87,1.08,1.01,-15.60,7.50,-28.35,28.8
2000/01/01 00:22:00.18,IMU,-59.08,-39.55,-969.24,-0.02,0.95,3.07,-17.40,7.20,-29.55,28.4
2000/01/01 00:22:00.28,IMU,-55.18,-38.57,-972.66,-1.60,0.45,4.60,-18.00,8.10,-28.20,28.7
2000/01/01 00:22:00.38,IMU,-66.41,-47.36,-970.21,0.02,-0.80,0.69,-16.95,9.60,-27.60,28.8
2000/01/01 00:22:00.48,IMU,-72.27,-51.27,-961.91,-3.18,0.92,-0.59,-16.95,8.10,-29.25,28.7
2000/01/01 00:22:00.58,IMU,-65.43,-46.39,-967.29,0.40,-2.73,0.62,-16.05,6.75,-29.10,28.6
2000/01/01 00:22:00.68,IMU,-75.20,-40.04,-964.84,-1.87,-0.49,1.85,-16.20,6.15,-28.65,28.8
2000/01/01 00:22:00.78,IMU,-61.52,-38.57,-962.40,-2.27,-1.08,2.06,-16.20,9.15,-29.25,28.8
2000/01/01 00:22:00.88,IMU,-64.94,-41.50,-965.33,-0.88,0.94,-0.98,-16.20,7.35,-27.60,28.8
2000/01/01 00:22:00.98,IMU,-66.89,-45.41,-976.56,1.00,-0.28,1.51,-16.50,6.15,-28.65,28.8
2000/01/01 00:22:01.08,IMU,-71.78,-41.50,-971.68,-0.18,0.24,1.61,-15.15,7.35,-29.70,28.6
2000/01/01 00:22:01.19,IMU,-65.92,-37.11,-966.31,-2.21,-0.58,-2.93,-15.15,7.35,-28.65,28.7
2000/01/01 00:22:01.29,IMU,-63.48,-52.25,-980.47,0.79,-2.21,-1.66,-19.95,4.95,-25.95,28.8
2000/01/01 00:22:01.39,IMU,-56.15,-49.80,-959.47,-1.18,-0.84,0.77,-16.35,7.95,-29.55,28.9
2000/01/01 00:22:01.49,IMU,-65.43,-41.02,-975.10,-0.11,-0.37,0.94,-15.45,7.65,-28.95,28.6
2000/01/01 00:22:01.59,IMU,-63.48,-36.62,-968.26,-0.50,-0.80,-2.68,-16.35,9.30,-29.10,28.9
2000/01/01 00:22:01.69,IMU,-65.92,-45.90,-969.24,-1.51,0.46,1.03,-16.95,8.40,-29.25,28.7
2000/01/01 00:22:01.79,IMU,-60.55,-37.60,-973.14,-1.75,0.51,2.06,-16.50,7.65,-27.60,28.7
2000/01/01 00:22:01.89,IMU,-57.13,-40.04,-970.21,-1.79,2.67,3.98,-17.10,7.95,-29.55,28.8
2000/01/01 00:22:01.99,IMU,-67.87,-43.46,-976.07,-0.05,-1.00,-0.24,-16.95,8.40,-27.90,28.5
2000/01/01 00:22:02.09,IMU,-72.27,-48.34,-952.64,-1.69,-0.57,-0.12,-17.40,8.25,-29.55,28.8
2000/01/01 00:22:02.19,IMU,-53.71,-49.32,-978.52,-1.30,-0.64,-0.40,-15.60,8.25,-28.35,28.9
2000/01/01 00:22:02.29,IMU,-72.27,-45.90,-958.98,1.53,-1.68,2.81,-19.65,6.00,-23.40,28.7
2000/01/01 00:22:02.39,IMU,-54.69,-48.34,-963.38,0.10,-0.63,-1.40,-16.20,8.85,-27.90,28.7
2000/01/01 00:22:02.49,IMU,-77.15,-43.95,-966.80,0.33,0.40,-1.93,-17.10,7.50,-29.85,28.6
2000/01/01 00:22:02.59,IMU,-65.92,-54.69,-969.73,-0.23,-1.11,1.81,-16.65,7.20,-28.35,28.7
2000/01/01 00:22:02.70,IMU,-71.78,-43.46,-960.45,-3.08,-0.73,0.03,-16.20,6.90,-28.20,29.0
2000/01/01 00:22:02.80,IMU,-60.06,-56.15,-974.12,-1.40,-2.29,1.89,-16.65,6.00,-28.05,28.7
2000/01/01 00:22:02.90,IMU,-60.55,-49.80,-973.63,-2.47,-0.62,3.95,-14.85,7.95,-28.80,28.5
2000/01/01 00:22:03.00,IMU,-65.92,-53.71,-975.10,-0.13,0.42,4.31,-16.35,6.45,-29.85,28.4
2000/01/01 00:22:03.10,IMU,-70.80,-51.76,-970.21,-0.50,1.47,0.17,-17.25,8.85,-28.95,28.7
2000/01/01 00:22:03.20,IMU,-64.94,-39.55,-965.33,-2.05,3.42,0.43,-15.30,8.70,-28.80,28.6
2000/01/01 00:22:03.31,IMU,-61.04,-37.60,-969.73,-1.61,-2.53,0.97,-17.25,5.55,-26.85,28.8
2000/01/01 00:22:03.41,IMU,-66.89,-42.48,-968.75,-1.65,1.07,-1.15,-17.55,6.90,-28.65,28.7
2000/01/01 00:22:03.51,IMU,-73.73,-37.11,-976.07,-2.18,-0.02,-2.78,-17.25,8.10,-28.20,28.7
2000/01/01 00:22:03.61,IMU,-52.25,-35.64,-964.36,-1.90,-2.92,1.52,-16.50,7.35,-28.20,28.8
2000/01/01 00:22:03.71,IMU,-73.73,-59.08,-970.70,-0.21,-1.15,1.43,-16.95,8.10,-29.25,28.6
2000/01/01 00:22:03.81,IMU,-72.27,-43.95,-973.63,0.58,0.58,2.94,-16.95,6.15,-28.20,28.6
2000/01/01 00:22:03.91,IMU,-66.41,-45.90,-966.31,-1.71,0.09,-0.40,-17.55,6.90,-28.65,28.6
2000/01/01 00:22:04.01,IMU,-69.34,-51.76,-979.49,0.37,0.95,-3.37,-17.55,8.40,-28.65,28.7
2000/01/01 00:22:04.11,IMU,-57.62,-28.32,-973.63,-0.34,-2.32,-0.81,-16.20,8.40,-28.95,28.8
2000/01/01 00:22:04.21,IMU,-68.85,-41.02,-964.36,-1.30,-1.15,-0.40,-17.25,7.35,-28.95,29.0
2000/01/01 00:22:04.31,IMU,-71.29,-46.39,-956.54,-0.76,-1.92,0.03,-15.30,7.20,-28.05,28.7
2000/01/01 00:22:04.41,IMU,-71.78,-47.36,-964.36,-2.42,-0.88,-0.31,-15.75,6.60,-28.65,28.5
2000/01/01 00:22:04.51,IMU,-53.71,-41.99,-971.19,1.36,-1.35,-0.82,-16.95,8.40,-28.95,28.7
2000/01/01 00:22:04.61,IMU,-75.68,-44.92,-963.87,-0.60,1.61,1.16,-16.95,7.65,-29.70,28.7
2000/01/01 00:22:04.71,IMU,-57.13,-57.62,-966.80,0.95,-0.53,0.21,-16.50,7.35,-28.20,28.6
2000/01/01 00:22:04.81,IMU,-62.99,-47.85,-973.63,-1.53,0.50,0.60,-16.05,7.20,-28.80,28.6
2000/01/01 00:22:04.92,IMU,-60.06,-50.78,-974.12,-1.39,-0.31,-1.32,-15.30,7.95,-29.55,28.9
2000/01/01 00:22:05.02,IMU,-50.78,-41.99,-958.50,-0.97,1.11,-2.02,-17.25,7.35,-28.65,28.7
2000/01/01 00:22:05.12,IMU,-72.75,-46.88,-971.68,-1.24,-0.27,-0.34,-17.85,8.25,-28.35,28.8
2000/01/01 00:22:05.22,IMU,-67.38,-52.73,-956.54,-0.95,-3.02,4.89,-16.65,9.75,-29.10,28.8
2000/01/01 00:22:05.32,IMU,-66.41,-44.43,-964.36,-1.00,-3.37,-2.32,-16.20,7.65,-29.70,28.6
2000/01/01 00:22:05.42,IMU,-72.75,-35.64,-958.98,-2.40,-2.69,0.76,-16.95,6.90,-28.65,28.7
2000/01/01 00:22:05.52,IMU,-61.52,-46.39,-961.91,-1.45,1.47,0.27,-15.45,8.10,-29.70,28.7
2000/01/01 00:22:05.62,IMU,-56.15,-42.48,-971.68,-0.17,1.71,2.45,-16.05,6.75,-29.85,28.6
2000/01/01 00:22:05.72,IMU,-69.82,-36.13,-976.56,-2.79,1.76,-1.81,-16.50,8.85,-28.95,28.6
2000/01/01 00:22:05.82,IMU,-61.52,-48.34,-973.14,0.06,-0.96,-1.53,-16.95,6.90,-28.95,28.4
2000/01/01 00:22:05.92,IMU,-60.55,-45.41,-966.80,-0.91,-1.89,0.90,-16.20,7.65,-30.30,28.5
2000/01/01 00:22:06.02,IMU,-55.66,-38.09,-961.91,-0.22,-0.28,0.07,-15.60,6.75,-28.80,28.6
2000/01/01 00:22:06.12,IMU,-60.55,-51.76,-961.43,0.19,-2.08,-2.11,-16.65,7.95,-28.80,28.7
2000/01/01 00:22:06.22,IMU,-65.92,-33.69,-955.57,-1.06,-0.87,0.33,-18.00,6.90,-28.65,28.6
2000/01/01 00:22:06.32,IMU,-71.29,-48.34,-962.40,-0.65,0.37,3.99,-16.95,7.65,-28.20,28.7
2000/01/01 00:22:06.43,IMU,-56.64,-51.27,-984.38,-2.73,-1.83,-0.31,-16.65,8.25,-29.10,28.7
2000/01/01 00:22:06.53,IMU,-48.83,-37.60,-969.73,0.10,-2.85,-0.95,-17.55,8.85,-28.65,28.9
2000/01/01 00:22:06.63,IMU,-69.34,-41.50,-975.10,-0.66,-0.61,-1.71,-17.40,7.50,-28.80,28.9
2000/01/01 00:22:06.73,IMU,-62.50,-36.62,-973.63,0.62,-0.65,1.76,-16.35,7.95,-28.80,28.5
2000/01/01 00:22:06.83,IMU,-62.01,-54.20,-980.47,0.11,-1.85,0.73,-17.55,8.10,-28.95,28.7
2000/01/01 00:22:06.93,IMU,-55.18,-48.83,-976.56,0.11,-2.32,-0.27,-15.45,7.35,-27.60,28.7
2000/01/01 00:22:07.03,IMU,-79.59,-34.18,-967.77,-1.10,-0.71,0.02,-17.10,7.95,-28.05,28.7
2000/01/01 00:22:07.13,IMU,-54.69,-45.41,-973.14,-0.34,-3.15,3.90,-15.75,7.35,-28.65,28.6
2000/01/01 00:22:07.23,IMU,-65.92,-42.97,-970.70,-0.92,-2.73,-0.73,-17.25,7.35,-27.60,28.7
2000/01/01 00:22:07.33,IMU,-49.80,-40.04,-970.70,-1.93,0.66,1.50,-15.15,6.15,-28.95,28.7
2000/01/01 00:22:07.43,IMU,-66.89,-43.46,-958.01,-0.46,0.96,0.77,-17.40,8.25,-29.10,28.7
2000/01/01 00:22:07.53,IMU,-62.01,-44.43,-969.24,-0.06,-0.64,3.81,-16.95,6.90,-28.95,28.7
2000/01/01 00:22:07.63,IMU,-65.92,-37.60,-963.38,-1.53,-1.53,-0.30,-16.65,7.50,-27.75,28.6
2000/01/01 00:22:07.73,IMU,-60.55,-42.97,-962.89,-0.18,-0.11,0.18,-16.35,6.75,-28.35,28.7
2000/01/01 00:22:07.83,IMU,-60.06,-49.32,-967.29,-0.81,-1.18,2.40,-17.40,8.25,-27.75,28.7
2000/01/01 00:22:07.94,IMU,-70.31,-41.50,-952.64,0.01,-0.05,-0.69,-16.05,6.75,-30.15,28.6
2000/01/01 00:22:08.04,IMU,-60.06,-40.53,-962.89,-1.34,-0.34,-1.21,-16.50,8.10,-29.25,28.6
2000/01/01 00:22:08.14,IMU,-62.01,-41.02,-971.19,-0.61,-0.35,-0.39,-16.95,7.35,-29.25,28.6
2000/01/01 00:22:08.24,IMU,-62.01,-39.06,-959.96,0.52,-2.40,2.34,-16.50,8.40,-30.00,28.6
2000/01/01 00:22:08.34,IMU,-73.73,-47.36,-977.05,-0.47,-1.35,-0.55,-17.10,8.70,-28.80,28.8
2000/01/01 00:22:08.44,IMU,-70.31,-38.09,-967.77,0.15,-0.26,-1.49,-17.40,7.50,-28.80,28.9
2000/01/01 00:22:08.54,IMU,-68.85,-41.99,-963.87,0.18,0.17,-1.32,-16.05,7.65,-28.20,28.7
2000/01/01 00:22:08.64,IMU,-63.96,-38.57,-967.29,0.05,-0.69,0.09,-16.35,8.70,-30.30,28.7
2000/01/01 00:22:08.74,IMU,-68.85,-41.99,-972.66,0.04,0.53,-1.95,-15.45,6.90,-28.95,28.6
2000/01/01 00:22:08.84,IMU,-60.55,-30.27,-965.33,-2.73,-0.74,-2.02,-18.45,7.50,-29.10,28.8
2000/01/01 00:22:08.94,IMU,-66.41,-49.80,-972.17,-1.06,-1.29,-0.02,-17.55,7.35,-29.25,28.5
2000/01/01 00:22:09.04,IMU,-70.80,-43.46,-957.03,1.18,-0.66,0.78,-15.45,7.35,-28.95,28.7
2000/01/01 00:22:09.14,IMU,-71.78,-36.62,-982.42,1.03,-2.13,1.31,-17.25,6.90,-28.95,29.0
2000/01/01 00:22:09.24,IMU,-61.04,-40.04,-962.89,0.00,-0.33,-0.47,-16.20,8.10,-29.70,28.6
2000/01/01 00:22:09.34,IMU,-59.08,-47.36,-966.31,-0.62,-2.11,-1.85,-15.60,7.95,-29.10,28.7
2000/01/01 00:22:09.44,IMU,-65.92,-47.85,-969.73,-2.57,-2.57,-0.60,-16.65,7.20,-28.05,28.8
2000/01/01 00:22:09.55,IMU,-57.62,-51.76,-984.86,-1.71,0.01,1.60,-16.35,7.95,-29.10,28.4
2000/01/01 00:22:09.67,IMU,-59.57,-45.90,-965.82,-0.51,-1.01,-2.50,-16.65,7.50,-28.80,28.6
2000/01/01 00:22:09.77,IMU,-69.34,-37.60,-971.19,-0.66,-0.27,0.25,-15.45,7.35,-29.25,28.8
2000/01/01 00:22:09.87,IMU,-57.62,-33.69,-963.38,0.17,-0.28,-0.07,-16.95,8.85,-27.60,28.6
2000/01/01 00:22:09.98,IMU,-60.06,-41.02,-964.84,-2.46,-0.11,-0.56,-15.75,6.60,-28.95,28.5
2000/01/01 00:22:10.08,IMU,-75.68,-54.69,-964.84,0.08,0.61,3.69,-16.50,8.10,-29.70,28.7
2000/01/01 00:22:10.18,IMU,-62.01,-57.13,-970.21,0.57,-1.17,2.18,-16.35,8.25,-28.80,28.7
2000/01/01 00:22:10.28,IMU,-63.96,-31.25,-971.68,-0.08,-1.21,1.98,-15.75,8.40,-29.25,28.6
2000/01/01 00:22:10.38,IMU,-74.22,-47.85,-982.42,-1.66,1.21,-0.96,-16.95,8.10,-27.60,28.9
2000/01/01 00:22:10.48,IMU,-66.89,-50.78,-976.56,-2.91,0.15,0.46,-15.60,8.25,-30.15,28.6
2000/01/01 00:22:10.58,IMU,-61.04,-44.43,-972.17,0.57,-1.40,-0.69,-16.05,7.95,-29.85,28.6
2000/01/01 00:22:10.68,IMU,-61.04,-35.64,-968.26,0.37,-4.27,-0.05,-16.95,7.35,-28.95,28.6
2000/01/01 00:22:10.78,IMU,-59.57,-42.48,-962.40,-0.95,-0.40,0.70,-15.60,8.25,-27.75,28.9
2000/01/01 00:22:10.88,IMU,-66.89,-44.92,-958.98,0.34,-2.54,1.48,-16.20,8.40,-27.90,28.6
2000/01/01 00:22:10.98,IMU,-53.22,-50.78,-984.86,-0.03,0.66,-0.72,-16.95,7.35,-29.25,28.7
2000/01/01 00:22:11.08,IMU,-64.45,-45.41,-968.26,-0.91,1.56,1.34,-16.20,8.10,-29.25,28.6
2000/01/01 00:22:11.18,IMU,-69.82,-43.95,-973.14,-1.15,1.31,-0.81,-15.30,7.50,-30.15,28.8
2000/01/01 00:22:11.28,IMU,-71.29,-37.11,-967.29,0.27,-1.24,1.42,-16.65,9.30,-29.10,28.8
2000/01/01 00:22:11.38,IMU,-63.48,-47.36,-966.31,-2.22,0.40,1.06,-17.40,7.95,-29.55,28.5
2000/01/01 00:22:11.49,IMU,-73.24,-47.36,-966.31,-0.40,1.47,0.25,-16.95,8.40,-27.90,28.5
2000/01/01 00:22:11.59,IMU,-58.11,-41.99,-961.91,-0.28,-0.34,-0.89,-17.10,7.50,-29.10,28.8
2000/01/01 00:22:11.69,IMU,-55.18,-43.46,-976.07,-0.90,-2.27,2.44,-17.55,6.15,-29.25,28.8
2000/01/01 00:22:11.79,IMU,-59.08,-41.99,-968.26,-1.67,-0.72,0.18,-15.45,8.10,-29.25,28.5
2000/01/01 00:22:11.89,IMU,-57.62,-49.80,-966.80,1.24,-0.27,-1.69,-16.35,8.25,-29.55,28.4
2000/01/01 00:22:11.99,IMU,-67.38,-43.95,-979.00,-2.05,2.84,1.36,-16.35,6.75,-29.55,28.6
2000/01/01 00:22:12.09,IMU,-67.38,-47.85,-960.45,-0.12,-2.47,-3.47,-18.30,8.10,-28.65,28.7
2000/01/01 00:22:12.19,IMU,-80.57,-57.62,-979.49,0.71,-0.79,1.92,-15.60,8.70,-30.15,28.8
2000/01/01 00:22:12.29,IMU,-66.89,-49.80,-971.19,-1.18,-1.60,0.79,-16.50,6.60,-28.65,28.6
2000/01/01 00:22:12.39,IMU,-58.11,-37.11,-959.96,-1.08,-0.98,3.27,-15.75,6.90,-29.70,28.8
2000/01/01 00:22:12.49,IMU,-58.11,-42.48,-970.21,-1.82,0.44,-0.52,-17.55,6.90,-26.40,28.7
2000/01/01 00:22:12.59,IMU,-69.82,-46.39,-971.68,-0.02,-1.31,0.38,-16.95,8.10,-29.25,28.8
2000/01/01 00:22:12.69,IMU,-60.55,-52.25,-961.91,-1.53,-1.35,-0.11,-16.35,8.70,-28.80,28.6
2000/01/01 00:22:12.79,IMU,-70.80,-39.55,-962.89,-2.34,-1.43,0.73,-16.35,7.20,-28.05,28.7
2000/01/01 00:22:12.89,IMU,-62.99,-50.78,-968.75,-0.96,1.43,1.24,-16.20,7.35,-28.65,29.0
2000/01/01 00:22:13.00,IMU,-64.45,-37.11,-972.66,-3.29,-1.50,0.79,-16.20,8.10,-28.20,28.8
2000/01/01 00:22:13.10,IMU,-72.27,-44.43,-977.05,-1.05,0.99,-0.53,-16.95,8.85,-29.25,28.8
2000/01/01 00:22:13.20,IMU,-56.64,-45.41,-973.14,-0.06,0.35,0.40,-17.25,8.10,-29.25,28.4
2000/01/01 00:22:13.30,IMU,-66.41,-48.83,-970.70,-1.21,2.04,-0.08,-16.65,8.25,-28.80,28.5
2000/01/01 00:22:13.40,IMU,-65.92,-44.43,-970.70,-0.83,1.05,0.50,-16.50,8.10,-29.70,28.7
2000/01/01 00:22:13.50,IMU,-82.03,-48.34,-973.14,-0.52,0.66,-0.41,-20.10,5.10,-25.80,28.7
2000/01/01 00:22:13.60,IMU,-67.87,-36.13,-966.31,-1.47,-1.52,0.56,-16.95,6.90,-28.20,28.7
2000/01/01 00:22:13.70,IMU,-60.55,-31.74,-961.91,0.15,-2.36,-2.65,-17.25,7.65,-28.65,28.7
2000/01/01 00:22:13.80,IMU,-66.41,-39.55,-967.77,0.10,-0.68,-0.91,-15.60,8.70,-29.85,28.6
2000/01/01 00:22:13.90,IMU,-62.50,-38.57,-966.31,-1.24,-1.73,0.96,-16.35,8.70,-28.35,28.8
2000/01/01 00:22:14.00,IMU,-60.55,-46.88,-966.31,-0.43,0.28,1.84,-16.20,7.35,-30.00,28.5
2000/01/01 00:22:14.10,IMU,-62.99,-49.32,-986.82,1.24,-1.26,-0.19,-17.25,8.40,-28.20,28.7
2000/01/01 00:22:14.20,IMU,-56.64,-49.80,-978.52,-0.71,0.29,-0.31,-16.65,7.95,-28.80,28.7
2000/01/01 00:22:14.30,IMU,-66.41,-55.66,-970.21,-0.80,0.84,1.18,-16.20,6.90,-29.25,28.7
2000/01/01 00:22:14.40,IMU,-60.06,-50.29,-961.43,0.15,0.08,2.83,-16.95,8.10,-29.25,28.8
2000/01/01 00:22:14.51,IMU,-65.92,-41.99,-985.84,-1.60,1.08,1.22,-20.70,5.25,-24.45,28.7
2000/01/01 00:22:14.61,IMU,-54.20,-26.86,-954.59,-0.73,0.39,-1.54,-17.25,5.85,-29.25,28.7
2000/01/01 00:22:14.71,IMU,-60.06,-52.73,-979.98,-3.21,-1.16,0.66,-18.00,7.65,-27.90,28.9
2000/01/01 00:22:14.81,IMU,-64.94,-39.55,-961.91,-0.77,-0.93,0.27,-16.20,8.10,-29.25,28.7
2000/01/01 00:22:14.91,IMU,-81.54,-36.62,-966.31,0.01,-0.40,-0.74,-16.35,6.45,-29.85,28.6
2000/01/01 00:22:15.01,IMU,-56.64,-46.39,-970.21,-1.44,-0.50,-2.71,-17.25,7.35,-30.30,28.7
2000/01/01 00:22:15.11,IMU,-62.01,-41.50,-967.77,0.84,-0.08,0.16,-15.60,7.50,-29.55,28.6
2000/01/01 00:22:15.21,IMU,-67.87,-46.88,-970.21,-1.72,0.15,0.57,-16.65,8.25,-30.15,28.7
2000/01/01 00:22:15.31,IMU,-60.55,-47.85,-966.80,-1.47,-3.01,-1.01,-14.85,7.20,-29.10,28.8
2000/01/01 00:22:15.41,IMU,-75.20,-41.50,-972.66,-0.50,-0.31,-0.98,-16.35,9.00,-28.80,28.6
2000/01/01 00:22:15.51,IMU,-63.48,-32.23,-967.29,1.09,-0.67,0.60,-16.35,7.95,-29.10,28.6
2000/01/01 00:22:15.61,IMU,-55.66,-26.86,-972.17,-0.69,0.56,1.34,-16.20,8.40,-28.65,28.9
2000/01/01 00:22:15.72,IMU,-63.96,-35.64,-968.75,-0.39,0.60,2.08,-16.35,7.95,-28.80,28.4
2000/01/01 00:22:15.82,IMU,-59.57,-54.69,-964.84,-1.09,-0.78,1.08,-17.10,7.20,-29.85,28.7
2000/01/01 00:22:15.92,IMU,-67.38,-44.92,-968.75,-1.99,-2.14,-0.29,-17.10,5.70,-29.85,28.6
2000/01/01 00:22:16.02,IMU,-67.87,-40.53,-950.20,1.14,-0.15,-3.22,-17.55,7.65,-28.20,28.6
2000/01/01 00:22:16.12,IMU,-62.50,-44.43,-968.26,0.92,0.94,-0.47,-15.75,6.90,-28.65,28.4
2000/01/01 00:22:16.22,IMU,-67.87,-49.32,-966.80,-2.43,-0.70,-4.53,-17.10,7.95,-28.80,28.7
2000/01/01 00:22:16.32,IMU,-63.48,-56.15,-971.19,0.61,-1.02,1.89,-16.35,7.95,-28.80,28.7
2000/01/01 00:22:16.42,IMU,-64.45,-52.73,-965.33,0.14,-2.74,0.58,-17.10,8.25,-28.80,28.7
2000/01/01 00:22:16.52,IMU,-68.85,-45.90,-971.68,-0.89,-1.35,0.49,-17.40,6.75,-29.55,28.5
2000/01/01 00:22:16.62,IMU,-74.22,-32.71,-982.42,-1.40,-0.64,0.76,-17.10,6.75,-29.85,28.6
2000/01/01 00:22:16.72,IMU,-73.73,-37.11,-965.82,-2.08,-1.15,2.72,-17.55,6.60,-28.65,28.6
2000/01/01 00:22:16.82,IMU,-66.89,-61.04,-976.07,-1.25,-1.08,0.63,-16.65,7.50,-28.80,28.7
2000/01/01 00:22:16.92,IMU,-59.57,-49.32,-974.12,-1.25,-0.98,-0.19,-16.50,7.65,-28.95,28.6
2000/01/01 00:22:17.02,IMU,-72.27,-39.55,-971.68,-0.42,-0.98,1.19,-16.95,7.35,-29.25,28.8
2000/01/01 00:22:17.12,IMU,-54.20,-41.50,-970.21,-0.20,-0.44,0.51,-17.40,8.70,-27.30,28.7
2000/01/01 00:22:17.23,IMU,-58.11,-34.67,-968.26,-0.35,-1.13,1.15,-17.25,7.35,-28.95,28.4
2000/01/01 00:22:17.33,IMU,-63.48,-42.97,-960.94,-0.79,-1.39,1.03,-15.15,8.40,-27.90,28.6
2000/01/01 00:22:17.43,IMU,-58.59,-33.20,-969.24,-1.65,-0.37,3.51,-16.65,8.25,-28.80,28.7
2000/01/01 00:22:17.53,IMU,-66.89,-41.50,-958.50,0.11,0.74,0.73,-15.75,7.35,-27.90,28.8
2000/01/01 00:22:17.63,IMU,-50.78,-46.88,-965.82,0.08,-2.36,1.03,-16.65,6.75,-28.80,28.7
2000/01/01 00:22:17.73,IMU,-57.13,-49.80,-965.82,-1.56,0.34,-0.55,-17.40,7.20,-28.80,28.8
2000/01/01 00:22:17.83,IMU,-72.75,-47.85,-971.68,-0.11,0.27,-0.56,-16.50,7.65,-29.70,28.7
2000/01/01 00:22:17.93,IMU,-49.80,-36.13,-959.96,-1.18,-2.17,4.00,-16.65,7.50,-28.80,28.8
2000/01/01 00:22:18.03,IMU,-69.34,-53.22,-959.96,-4.04,-0.95,-0.54,-16.05,7.95,-29.55,28.9
2000/01/01 00:22:18.13,IMU,-55.18,-37.60,-979.00,0.24,-0.34,-1.24,-17.10,8.70,-29.55,28.9
2000/01/01 00:22:18.23,IMU,-63.96,-40.04,-964.36,-2.23,0.27,1.66,-17.10,8.70,-28.35,28.5
2000/01/01 00:22:18.33,IMU,-62.01,-51.27,-969.24,-1.18,-1.19,0.49,-16.50,7.65,-29.70,28.8
2000/01/01 00:22:18.43,IMU,-67.87,-50.78,-962.89,-1.48,-2.11,0.37,-16.20,7.65,-28.95,28.8
2000/01/01 00:22:18.53,IMU,-58.59,-39.06,-963.87,0.83,-3.47,0.66,-15.75,8.10,-27.90,28.6
2000/01/01 00:22:18.63,IMU,-62.99,-51.27,-971.19,-0.24,0.91,0.60,-16.05,8.25,-28.80,28.6
2000/01/01 00:22:18.73,IMU,-66.41,-42.48,-958.01,-3.21,-1.70,-1.05,-17.85,8.25,-27.30,28.5
2000/01/01 00:22:18.84,IMU,-56.64,-47.36,-961.91,-1.05,1.36,2.34,-17.40,7.95,-28.35,28.7
2000/01/01 00:22:18.94,IMU,-60.55,-40.04,-968.75,0.25,-2.82,0.84,-15.15,9.60,-28.95,28.7
2000/01/01 00:22:20.47,IMU,-66.89,-40.53,-967.77,-0.69,-0.14,0.05,-16.35,7.20,-29.85,28.6
2000/01/01 00:22:20.57,IMU,-71.78,-33.69,-967.77,-1.98,-0.71,-1.88,-16.20,8.10,-28.20,28.9
2000/01/01 00:22:20.67,IMU,-62.01,-39.06,-959.96,-0.18,0.46,-0.56,-16.50,7.65,-29.70,28.6
2000/01/01 00:22:20.77,IMU,-57.62,-45.41,-967.29,-0.25,-0.37,0.41,-16.95,7.35,-29.25,28.7
2000/01/01 00:22:20.87,IMU,-70.31,-42.97,-956.05,-0.60,-0.35,-1.21,-16.65,9.00,-29.55,28.9
2000/01/01 00:22:20.98,IMU,-70.31,-40.04,-967.29,-0.89,-3.56,1.68,-16.50,7.35,-27.15,29.0
2000/01/01 00:22:21.08,IMU,-61.04,-42.48,-977.54,0.24,-1.93,-1.15,-15.45,7.35,-28.20,28.6
2000/01/01 00:22:21.18,IMU,-70.80,-42.97,-966.31,0.70,-1.38,-1.98,-15.45,6.90,-29.70,28.7
2000/01/01 00:22:21.28,IMU,-61.04,-40.04,-971.68,-1.02,-1.72,4.63,-18.00,6.90,-28.95,28.7
2000/01/01 00:22:21.38,IMU,-59.57,-36.62,-969.24,-1.05,-1.79,-0.67,-16.65,8.70,-29.55,28.9
2000/01/01 00:22:21.48,IMU,-69.34,-46.39,-968.75,-1.43,1.59,-0.24,-17.40,7.20,-28.80,28.6
2000/01/01 00:22:21.58,IMU,-73.73,-45.41,-970.70,-1.44,0.44,-0.92,-16.35,7.50,-28.80,28.6
2000/01/01 00:22:21.68,IMU,-82.03,-42.48,-963.87,-1.50,-1.02,-0.31,-16.65,8.25,-28.35,28.6
2000/01/01 00:22:21.78,IMU,-57.13,-49.80,-967.77,-2.37,-4.27,0.83,-16.95,8.10,-30.00,28.6
2000/01/01 00:22:21.88,IMU,-69.34,-41.99,-971.19,-1.48,-2.21,-3.29,-15.45,7.65,-29.25,28.7
2000/01/01 00:22:21.98,IMU,-66.41,-45.90,-971.19,-3.51,-3.75,-1.74,-16.20,7.65,-29.25,28.7
2000/01/01 00:22:22.08,IMU,-70.31,-39.06,-964.36,-0.33,-3.30,1.47,-16.65,7.20,-28.05,28.5
2000/01/01 00:22:22.18,IMU,-63.48,-41.99,-963.87,-0.40,-0.02,-2.15,-16.20,7.65,-28.65,28.5
2000/01/01 00:22:22.28,IMU,-79.59,-46.39,-985.84,-1.27,0.15,-1.08,-16.65,6.75,-29.10,28.6
2000/01/01 00:22:22.38,IMU,-61.04,-47.36,-973.14,-0.10,-2.08,0.11,-16.05,6.45,-28.80,28.4
2000/01/01 00:22:22.49,IMU,-62.99,-52.73,-976.07,0.87,-1.05,-1.81,-17.25,7.65,-28.95,28.7
2000/01/01 00:22:22.59,IMU,-66.41,-47.85,-968.75,-1.08,0.47,2.05,-17.25,8.40,-28.95,28.5
2000/01/01 00:22:22.69,IMU,-59.57,-48.34,-960.45,1.81,-1.60,-0.60,-16.95,7.35,-29.70,28.8
2000/01/01 00:22:22.79,IMU,-60.55,-36.13,-966.80,-3.13,-0.89,0.15,-15.15,6.90,-28.65,28.9
2000/01/01 00:22:22.89,IMU,-70.31,-49.32,-973.63,0.35,2.79,2.61,-16.35,8.25,-29.55,28.6
2000/01/01 00:22:22.99,IMU,-65.92,-46.88,-986.82,-0.82,-0.27,0.07,-16.95,8.40,-30.00,28.8
2000/01/01 00:22:23.09,IMU,-51.27,-41.99,-967.77,0.95,-1.76,-1.55,-15.60,6.00,-29.55,28.9
2000/01/01 00:22:23.19,IMU,-67.87,-41.02,-971.19,-2.73,-1.76,-0.69,-17.10,7.20,-29.10,28.5
2000/01/01 00:22:23.29,IMU,-53.22,-43.95,-970.70,0.25,2.05,-0.66,-16.50,6.90,-28.95,28.7
2000/01/01 00:22:23.39,IMU,-76.66,-42.48,-962.40,-1.46,-1.11,0.63,-15.75,6.90,-28.65,28.7
2000/01/01 00:22:23.49,IMU,-56.15,-44.43,-973.63,1.00,0.53,2.09,-17.55,8.85,-28.95,28.6
2000/01/01 00:22:23.59,IMU,-68.36,-43.95,-986.82,-0.94,-0.95,1.75,-16.95,7.35,-30.00,28.7
2000/01/01 00:22:23.69,IMU,-76.17,-57.13,-964.36,-1.83,-1.25,-1.40,-16.95,8.85,-28.65,28.7
2000/01/01 00:22:23.79,IMU,-65.92,-47.85,-973.14,-0.76,0.15,1.44,-16.50,5.85,-29.70,28.8
2000/01/01 00:22:23.89,IMU,-70.80,-40.53,-977.54,0.16,-0.93,-1.03,-16.50,7.65,-28.95,28.6
2000/01/01 00:22:24.00,IMU,-63.96,-42.48,-970.70,-0.92,1.31,2.07,-17.40,8.25,-28.80,28.7
2000/01/01 00:22:24.10,IMU,-63.96,-47.85,-963.38,0.79,0.31,3.11,-16.95,7.35,-28.65,28.7
2000/01/01 00:22:24.20,IMU,-62.50,-39.06,-972.17,-2.39,-0.41,-2.05,-16.95,7.35,-29.25,28.6
2000/01/01 00:22:24.30,IMU,-68.36,-55.66,-972.66,-0.15,0.96,-1.18,-18.30,7.65,-30.30,28.7
2000/01/01 00:22:24.40,IMU,-73.73,-34.67,-977.05,-0.34,1.50,2.69,-16.20,8.10,-27.60,28.7
2000/01/01 00:22:24.50,IMU,-66.89,-38.57,-971.68,0.21,-2.99,0.07,-16.50,8.85,-29.70,28.7
2000/01/01 00:22:24.60,IMU,-61.04,-35.16,-968.26,-1.29,1.29,0.24,-15.75,8.10,-28.95,28.7
2000/01/01 00:22:24.70,IMU,-62.99,-40.04,-968.75,0.86,-2.27,3.72,-17.40,8.70,-28.05,28.6
2000/01/01 00:22:24.80,IMU,-68.85,-53.71,-973.63,0.81,-0.89,0.00,-15.75,8.10,-29.70,28.7
2000/01/01 00:22:24.90,IMU,-56.64,-52.25,-969.24,0.24,-2.28,1.61,-17.40,6.75,-28.80,28.8
2000/01/01 00:22:25.00,IMU,-64.45,-41.50,-974.12,-1.34,0.85,-0.43,-17.40,9.00,-27.75,28.6
2000/01/01 00:22:25.10,IMU,-68.36,-40.53,-970.70,0.05,2.26,-0.35,-16.65,7.20,-28.35,28.5
2000/01/01 00:22:25.20,IMU,-71.78,-42.48,-962.40,0.21,-0.67,0.64,-16.35,8.25,-28.80,28.7
2000/01/01 00:22:25.30,IMU,-62.01,-41.99,-970.21,-1.05,1.08,0.28,-15.45,8.10,-27.90,28.6
2000/01/01 00:22:25.40,IMU,-60.55,-44.92,-978.52,0.31,-3.04,-1.37,-16.35,8.25,-29.10,28.9
2000/01/01 00:22:25.51,IMU,-64.94,-37.60,-971.19,-0.95,0.63,2.69,-17.55,7.35,-27.60,28.7
2000/01/01 00:22:25.61,IMU,-62.99,-45.41,-966.80,-2.08,-1.71,1.38,-17.25,7.65,-27.60,28.7
2000/01/01 00:22:25.71,IMU,-79.59,-31.25,-967.77,-1.89,-1.49,-0.29,-16.35,7.95,-28.05,28.7
2000/01/01 00:22:25.81,IMU,-67.38,-51.27,-966.80,-1.50,-3.06,0.33,-16.20,6.60,-28.20,28.7
2000/01/01 00:22:25.91,IMU,-60.06,-49.32,-968.75,-2.70,-0.96,-1.27,-16.05,7.50,-28.35,28.7
2000/01/01 00:22:26.01,IMU,-59.57,-41.99,-961.91,-1.37,3.82,2.19,-18.00,8.10,-28.65,28.7
2000/01/01 00:22:26.11,IMU,-68.85,-44.43,-972.17,1.05,-2.08,-1.44,-15.75,6.90,-29.25,28.6
2000/01/01 00:22:26.21,IMU,-62.99,-60.06,-961.91,-0.25,-0.21,0.59,-17.10,7.50,-29.10,28.7
2000/01/01 00:22:26.31,IMU,-62.50,-42.97,-981.93,-0.78,-1.27,1.49,-17.85,6.75,-29.10,28.6
2000/01/01 00:22:26.41,IMU,-55.18,-49.80,-964.84,-2.57,-0.24,2.20,-16.35,7.50,-28.05,28.6
2000/01/01 00:22:26.51,IMU,-45.41,-47.36,-965.33,-1.05,-1.16,4.35,-15.75,8.40,-29.70,29.0
2000/01/01 00:22:26.61,IMU,-61.04,-40.04,-967.29,-0.52,-1.31,-1.69,-15.15,5.85,-27.60,28.6
2000/01/01 00:22:26.71,IMU,-67.38,-43.46,-972.66,-0.03,0.04,-0.69,-16.50,7.35,-28.95,28.9
2000/01/01 00:22:26.81,IMU,-74.71,-49.32,-962.89,-0.43,-1.74,1.09,-16.35,7.20,-28.05,28.5
2000/01/01 00:22:26.91,IMU,-67.38,-42.48,-965.82,-0.94,-1.79,0.05,-17.25,7.35,-29.25,28.7
2000/01/01 00:22:27.02,IMU,-52.25,-35.16,-979.49,-3.18,-1.16,0.76,-16.20,7.35,-28.95,28.7
2000/01/01 00:22:27.12,IMU,-70.80,-49.80,-968.26,-0.12,-0.52,0.92,-16.95,6.60,-28.95,28.7
2000/01/01 00:22:27.22,IMU,-62.01,-36.13,-964.84,0.89,0.57,-2.31,-16.50,8.10,-29.70,28.8
2000/01/01 00:22:27.32,IMU,-63.96,-45.90,-974.61,-1.33,-0.30,2.37,-16.95,6.60,-29.25,28.6
2000/01/01 00:22:27.42,IMU,-64.94,-34.67,-966.31,-1.89,-1.58,-1.19,-14.85,7.20,-29.55,28.8
2000/01/01 00:22:27.52,IMU,-63.96,-29.30,-961.91,-0.03,0.84,2.15,-16.95,8.85,-28.95,28.8
2000/01/01 00:22:27.62,IMU,-58.59,-44.92,-965.82,-2.56,-2.38,-0.63,-16.65,7.50,-29.55,28.7
2000/01/01 00:22:27.72,IMU,-78.12,-50.78,-963.87,-1.08,-3.62,-0.76,-15.75,7.35,-29.25,28.6
2000/01/01 00:22:27.82,IMU,-63.48,-44.43,-965.82,-1.48,0.81,-0.79,-16.65,9.00,-29.85,28.7
2000/01/01 00:22:27.92,IMU,-60.06,-38.09,-977.05,-1.26,0.64,1.59,-17.25,7.65,-28.95,28.8
2000/01/01 00:22:28.02,IMU,-59.57,-45.90,-969.73,-1.01,0.45,-1.22,-16.20,7.65,-28.65,28.6
2000/01/01 00:22:28.12,IMU,-64.45,-31.25,-966.31,-0.78,-0.66,1.03,-17.10,8.25,-29.10,28.6
2000/01/01 00:22:28.22,IMU,-60.06,-44.43,-970.21,1.09,-1.34,-4.15,-16.50,7.35,-29.25,28.7
2000/01/01 00:22:28.32,IMU,-63.96,-36.13,-977.54,-1.68,0.79,0.66,-16.95,6.90,-30.00,28.7
2000/01/01 00:22:28.42,IMU,-61.04,-53.71,-974.61,0.97,-1.33,0.63,-17.25,8.40,-29.70,28.8
2000/01/01 00:22:28.52,IMU,-63.48,-44.92,-969.24,-1.52,-0.40,0.27,-16.50,8.40,-28.65,28.6
2000/01/01 00:22:28.64,IMU,-71.29,-57.13,-970.70,-2.52,-2.31,0.82,-19.95,5.25,-24.15,28.6
2000/01/01 00:22:28.74,IMU,-64.45,-46.88,-969.73,0.01,3.10,0.83,-16.35,7.95,-28.35,28.6
2000/01/01 00:22:28.84,IMU,-72.27,-48.34,-984.86,-1.71,-1.09,-1.24,-16.20,6.90,-28.95,28.7
2000/01/01 00:22:28.94,IMU,-64.94,-45.41,-978.52,-0.50,-2.11,-0.15,-15.60,8.25,-28.80,28.8
2000/01/01 00:22:29.04,IMU,-59.57,-42.97,-976.07,-1.61,0.88,-3.36,-17.55,7.65,-29.25,28.8
2000/01/01 00:22:29.14,IMU,-75.20,-54.20,-975.10,0.71,-0.44,4.44,-17.85,7.20,-28.80,28.7
2000/01/01 00:22:29.24,IMU,-59.57,-39.55,-981.93,-1.46,-2.49,-0.94,-17.40,8.25,-29.10,28.6
2000/01/01 00:22:29.34,IMU,-58.59,-42.48,-971.68,-0.93,-2.28,0.31,-15.75,8.10,-29.25,28.6
2000/01/01 00:22:29.44,IMU,-60.55,-37.11,-964.36,-0.80,1.91,2.38,-17.85,7.20,-29.85,28.7
2000/01/01 00:22:29.54,IMU,-66.41,-50.78,-982.91,-1.04,1.49,2.80,-16.65,8.70,-29.10,28.7
2000/01/01 00:22:29.64,IMU,-53.22,-44.43,-971.19,0.37,1.11,-0.69,-16.95,6.90,-28.95,28.4
2000/01/01 00:22:29.74,IMU,-71.29,-47.36,-976.56,-1.69,-0.06,2.20,-16.05,8.25,-29.85,28.6
2000/01/01 00:22:29.84,IMU,-70.80,-36.62,-975.10,-2.13,0.36,-0.82,-17.25,7.35,-28.95,28.6
2000/01/01 00:22:29.94,IMU,-69.82,-33.69,-974.12,-2.85,-0.27,-0.14,-18.00,6.60,-28.20,28.7
2000/01/01 00:22:30.04,IMU,-64.94,-49.32,-969.24,-1.11,-0.08,1.63,-16.95,8.40,-28.65,28.6
2000/01/01 00:22:30.15,IMU,-71.29,-40.04,-965.82,1.78,0.92,-1.75,-16.95,6.60,-27.90,28.7
2000/01/01 00:22:30.25,IMU,-62.50,-54.20,-974.61,0.39,-1.86,1.91,-16.95,8.10,-29.25,28.6
2000/01/01 00:22:30.35,IMU,-74.22,-34.18,-968.26,-1.21,-0.66,-3.63,-16.95,7.35,-29.25,28.6
2000/01/01 00:22:30.45,IMU,-67.38,-41.99,-961.91,-1.53,-2.74,0.21,-15.45,8.10,-28.20,28.7
2000/01/01 00:22:30.55,IMU,-52.25,-61.52,-971.68,-0.35,1.97,3.02,-17.10,8.25,-28.35,28.4
2000/01/01 00:22:30.65,IMU,-68.85,-40.53,-974.12,-0.15,0.92,-0.24,-14.85,7.95,-29.10,28.6
2000/01/01 00:22:30.75,IMU,-64.94,-45.41,-967.29,0.19,-3.42,1.01,-16.20,7.65,-30.30,28.7
2000/01/01 00:22:30.85,IMU,-72.75,-44.92,-972.17,-1.12,-0.85,0.60,-16.95,8.10,-28.95,28.8
2000/01/01 00:22:30.95,IMU,-62.01,-49.32,-974.12,0.44,-0.40,2.02,-16.35,9.00,-28.80,28.6
2000/01/01 00:22:31.05,IMU,-68.36,-49.32,-964.36,-0.60,-1.34,2.36,-17.55,7.35,-28.95,28.7
2000/01/01 00:22:31.15,IMU,-57.62,-38.09,-962.40,-1.24,-0.80,-1.57,-16.35,8.70,-29.85,28.6
2000/01/01 00:22:31.25,IMU,-61.52,-52.73,-966.80,-0.87,-0.72,0.20,-16.50,7.35,-28.95,28.7
2000/01/01 00:22:31.35,IMU,-70.80,-50.78,-979.98,-0.10,-0.21,2.50,-16.35,7.95,-28.05,28.7
2000/01/01 00:22:31.45,IMU,-61.04,-43.46,-972.66,-1.48,0.69,2.44,-17.40,6.00,-28.05,28.7
2000/01/01 00:22:31.55,IMU,-69.34,-35.16,-970.21,-1.25,-1.58,-0.23,-17.40,7.95,-30.15,28.7
2000/01/01 00:22:31.66,IMU,-72.27,-35.16,-973.14,-1.56,0.49,0.20,-15.75,8.10,-28.65,28.8
2000/01/01 00:22:31.76,IMU,-65.92,-43.95,-969.24,0.85,1.34,-3.33,-16.05,6.75,-29.55,28.6
2000/01/01 00:22:31.86,IMU,-56.15,-64.45,-973.14,0.40,-1.21,1.67,-15.75,8.10,-28.65,28.6
2000/01/01 00:22:31.96,IMU,-65.43,-55.66,-971.68,-0.72,-1.98,0.08,-16.50,7.65,-28.20,28.6
2000/01/01 00:22:32.06,IMU,-62.50,-38.09,-969.24,-0.69,1.50,1.95,-16.05,8.25,-28.35,28.8
2000/01/01 00:22:32.16,IMU,-72.27,-51.27,-981.45,-1.35,-2.30,-2.18,-15.60,9.30,-29.10,28.6
2000/01/01 00:22:32.26,IMU,-68.85,-49.80,-970.70,-0.94,-0.65,-0.55,-17.10,7.20,-29.85,28.7
2000/01/01 00:22:32.36,IMU,-56.64,-24.90,-968.26,0.90,0.21,1.01,-16.20,8.10,-29.25,28.7
2000/01/01 00:22:32.46,IMU,-58.59,-35.16,-964.84,-0.50,-2.83,0.40,-15.75,8.40,-28.95,28.6
2000/01/01 00:22:32.56,IMU,-70.31,-43.95,-970.21,-0.31,-0.66,2.32,-15.75,7.35,-30.00,28.6
2000/01/01 00:22:32.66,IMU,-71.78,-40.04,-967.29,0.08,-0.89,-3.15,-16.95,7.35,-29.25,28.8
2000/01/01 00:22:32.76,IMU,-64.45,-54.69,-970.21,-1.13,-0.98,-2.90,-16.65,8.70,-28.05,28.6
2000/01/01 00:22:32.86,IMU,-64.94,-52.25,-970.21,-1.17,-0.21,-2.12,-16.05,8.70,-28.35,28.5
2000/01/01 00:22:32.96,IMU,-67.38,-46.39,-969.24,-1.23,-1.32,1.96,-15.60,7.50,-29.10,28.7
2000/01/01 00:22:33.06,IMU,-59.08,-50.78,-968.26,1.40,-1.38,1.84,-17.40,7.95,-28.80,28.7
2000/01/01 00:22:33.17,IMU,-59.08,-40.04,-964.36,0.85,-1.95,2.07,-16.20,6.60,-28.65,28.7
2000/01/01 00:22:33.27,IMU,-62.50,-43.95,-964.84,1.16,-2.16,-0.37,-17.10,7.95,-28.80,28.6
2000/01/01 00:22:33.37,IMU,-61.52,-51.76,-975.59,-0.94,-2.68,-0.73,-17.55,6.90,-28.65,28.5
2000/01/01 00:22:33.47,IMU,-68.36,-43.46,-977.54,-0.79,-0.84,-0.68,-17.25,5.85,-28.65,28.8
2000/01/01 00:22:33.57,IMU,-50.29,-46.39,-969.24,1.13,2.06,0.76,-15.75,8.10,-29.70,28.7
2000/01/01 00:22:33.67,IMU,-76.17,-41.50,-967.29,-1.44,-1.14,-1.61,-15.60,8.70,-29.55,28.5
2000/01/01 00:22:33.77,IMU,-62.50,-55.18,-966.31,-1.96,0.16,-1.50,-20.70,5.70,-25.20,28.4
2000/01/01 00:22:33.87,IMU,-70.80,-40.04,-978.52,1.38,-2.01,2.21,-17.10,7.20,-30.60,28.8
2000/01/01 00:22:33.97,IMU,-75.20,-38.09,-975.59,-1.45,-2.15,1.21,-16.20,6.15,-29.25,28.8
2000/01/01 00:22:34.07,IMU,-69.34,-49.80,-964.36,-0.98,0.82,0.20,-16.65,7.95,-29.55,28.7
2000/01/01 00:22:34.17,IMU,-56.64,-41.02,-966.31,0.23,-0.77,-1.00,-16.50,8.40,-28.20,28.4
2000/01/01 00:22:34.27,IMU,-72.27,-41.50,-969.73,0.82,-0.02,4.50,-16.95,7.35,-27.90,28.8
2000/01/01 00:22:34.37,IMU,-64.94,-48.83,-970.21,0.99,0.23,1.37,-16.05,7.50,-30.60,28.6
2000/01/01 00:22:34.47,IMU,-59.57,-45.41,-973.14,-0.09,-1.78,2.16,-16.95,7.35,-29.70,28.9
2000/01/01 00:22:34.57,IMU,-75.68,-53.22,-970.70,-0.80,0.26,-0.78,-16.05,7.50,-28.35,28.7
2000/01/01 00:22:34.68,IMU,-65.43,-35.64,-967.77,-2.83,-1.95,1.85,-16.05,8.70,-27.75,28.7
2000/01/01 00:22:34.78,IMU,-61.04,-40.53,-965.82,-0.57,0.40,-4.04,-21.45,6.45,-22.80,28.8
2000/01/01 00:22:34.88,IMU,-64.45,-54.69,-969.24,-1.80,-1.10,-0.50,-16.20,7.65,-28.65,28.8
2000/01/01 00:22:34.98,IMU,-63.96,-27.34,-967.77,-1.11,1.66,1.62,-17.55,8.40,-28.95,28.4
2000/01/01 00:22:35.08,IMU,-72.75,-49.32,-978.52,0.57,-2.22,-1.15,-17.10,7.95,-28.80,28.5
2000/01/01 00:22:35.18,IMU,-70.31,-54.69,-966.80,-2.26,-0.93,1.66,-16.65,7.95,-28.80,28.4
2000/01/01 00:22:35.28,IMU,-64.94,-57.13,-955.08,0.27,0.42,-0.47,-15.60,8.25,-28.35,28.8
2000/01/01 00:22:35.38,IMU,-76.17,-41.99,-963.87,-1.69,0.27,1.95,-17.25,6.90,-29.25,28.7
2000/01/01 00:22:35.48,IMU,-67.87,-47.85,-977.05,-0.47,1.21,-3.34,-16.50,8.10,-29.70,28.4
2000/01/01 00:22:35.58,IMU,-62.99,-44.43,-973.63,-2.30,-1.86,-0.89,-17.55,6.90,-28.65,28.7
2000/01/01 00:22:35.68,IMU,-66.89,-49.32,-961.43,-0.31,-2.21,-1.77,-17.25,9.15,-28.95,28.8
2000/01/01 00:22:35.79,IMU,-58.59,-39.55,-960.94,1.38,0.21,1.69,-17.10,5.70,-26.25,28.6
2000/01/01 00:22:35.89,IMU,-81.05,-47.36,-970.21,-0.45,-0.35,1.85,-16.35,8.25,-29.55,28.8
2000/01/01 00:22:35.99,IMU,-62.50,-34.18,-965.82,-0.37,-1.60,0.69,-16.50,7.65,-29.70,28.6
2000/01/01 00:22:36.09,IMU,-52.73,-52.25,-987.79,-0.02,-0.27,-0.48,-17.40,7.50,-28.80,28.7
2000/01/01 00:22:36.19,IMU,-66.41,-41.50,-975.10,-0.08,-1.33,-0.63,-16.20,8.40,-29.25,28.7
2000/01/01 00:22:36.29,IMU,-70.80,-40.53,-960.45,-1.54,-1.33,-2.46,-16.50,8.40,-28.65,28.5
2000/01/01 00:22:36.39,IMU,-55.66,-46.88,-969.73,-1.79,0.53,-1.18,-16.50,7.35,-28.95,28.5
2000/01/01 00:22:36.49,IMU,-69.82,-41.50,-974.61,-1.53,-0.53,-0.20,-17.40,7.50,-29.10,28.6
2000/01/01 00:22:36.59,IMU,-57.62,-40.53,-972.17,-2.83,-0.34,0.03,-16.50,8.40,-30.00,28.9
2000/01/01 00:22:36.69,IMU,-58.59,-38.57,-966.80,-0.82,-1.63,1.76,-15.75,6.15,-28.65,28.7
2000/01/01 00:22:36.79,IMU,-58.59,-38.57,-978.03,-1.72,-3.79,0.47,-16.35,7.50,-27.30,28.4
2000/01/01 00:22:36.90,IMU,-65.43,-44.43,-955.08,-1.61,-1.57,0.67,-15.45,6.60,-28.95,28.6
2000/01/01 00:22:37.00,IMU,-69.82,-43.95,-977.05,-1.38,-0.26,0.21,-17.10,8.70,-29.10,28.6
2000/01/01 00:22:37.10,IMU,-61.52,-38.57,-971.68,0.82,1.05,-1.85,-15.45,7.65,-29.25,28.6
2000/01/01 00:22:37.20,IMU,-61.52,-40.04,-982.91,1.45,-2.85,0.64,-16.35,7.50,-29.55,28.5
2000/01/01 00:22:37.30,IMU,-71.29,-44.43,-976.07,-1.32,-0.01,0.73,-15.75,8.10,-28.95,28.6
2000/01/01 00:22:37.40,IMU,-61.04,-41.99,-970.21,-0.11,-2.02,0.87,-16.20,7.65,-29.25,28.6
2000/01/01 00:22:37.50,IMU,-68.85,-36.62,-974.61,0.06,-0.92,0.21,-16.65,7.50,-27.75,28.5
2000/01/01 00:22:37.60,IMU,-62.99,-38.57,-963.38,-1.54,-2.44,2.48,-15.60,7.95,-29.10,28.6
2000/01/01 00:22:37.70,IMU,-54.20,-51.76,-957.52,-1.68,-2.52,-1.15,-16.65,7.50,-27.75,28.6
2000/01/01 00:22:37.80,IMU,-47.85,-50.29,-970.70,-0.27,-0.90,1.39,-17.10,8.25,-28.35,28.7
2000/01/01 00:22:37.90,IMU,-70.31,-43.46,-968.26,-0.27,0.69,-1.56,-16.20,7.35,-28.20,28.7
2000/01/01 00:22:38.00,IMU,-74.22,-42.97,-966.31,-0.43,-1.82,1.20,-17.85,8.25,-28.35,29.0
2000/01/01 00:22:38.10,IMU,-62.99,-41.50,-967.29,0.47,-0.59,-0.85,-16.65,7.95,-29.85,28.7
2000/01/01 00:22:38.20,IMU,-66.41,-45.41,-964.36,-2.74,-2.25,1.29,-17.85,8.70,-29.85,28.6
2000/01/01 00:22:38.30,IMU,-65.92,-44.92,-966.31,1.37,-1.04,-0.40,-16.20,8.85,-30.75,28.7
2000/01/01 00:22:38.41,IMU,-69.34,-32.23,-981.93,-1.74,-1.00,-0.04,-16.50,7.35,-29.25,28.5
2000/01/01 00:22:38.51,IMU,-79.10,-42.97,-975.59,0.47,-0.78,0.79,-16.20,6.90,-28.65,28.6
2000/01/01 00:22:38.61,IMU,-64.45,-58.59,-965.82,-1.85,0.73,0.13,-15.15,8.10,-28.95,28.6
2000/01/01 00:22:38.71,IMU,-55.66,-44.43,-958.50,-1.09,0.56,0.11,-15.75,7.35,-28.95,28.6
2000/01/01 00:22:38.81,IMU,-70.80,-54.20,-971.68,0.56,0.00,1.48,-16.65,8.25,-28.35,28.6
2000/01/01 00:22:38.91,IMU,-57.13,-42.97,-968.26,-1.08,-0.98,0.24,-16.20,7.35,-29.25,28.6
2000/01/01 00:22:39.01,IMU,-60.06,-53.22,-968.26,-1.82,-0.21,2.63,-17.10,7.20,-29.55,28.7
2000/01/01 00:22:39.11,IMU,-68.36,-53.22,-968.75,0.45,-1.50,-0.65,-17.85,7.50,-28.80,28.7
2000/01/01 00:22:39.21,IMU,-70.31,-38.09,-973.14,-3.02,0.37,-0.18,-17.10,7.50,-27.00,28.7
2000/01/01 00:22:39.31,IMU,-64.94,-44.92,-978.03,0.06,-0.84,0.33,-16.95,8.10,-28.20,28.6
2000/01/01 00:22:39.41,IMU,-78.12,-56.64,-971.19,-1.00,-0.99,0.95,-16.05,7.20,-29.85,28.6
2000/01/01 00:22:39.51,IMU,-77.15,-52.73,-972.66,1.21,0.78,0.79,-16.05,6.45,-28.05,28.5
2000/01/01 00:22:39.61,IMU,-61.04,-34.67,-975.59,0.25,-1.51,-0.38,-17.55,6.90,-29.70,28.7
2000/01/01 00:22:39.71,IMU,-69.34,-58.59,-971.68,-0.18,-1.66,-0.92,-17.55,8.10,-28.65,28.6
2000/01/01 00:22:39.81,IMU,-79.10,-56.64,-976.07,-0.98,-1.37,-3.02,-18.15,7.50,-29.55,28.4
2000/01/01 00:22:39.92,IMU,-67.87,-49.80,-973.63,-1.24,-2.18,-2.62,-17.10,8.25,-28.05,28.4
2000/01/01 00:22:40.02,IMU,-70.31,-54.20,-956.54,-1.04,-1.24,-0.89,-15.45,8.85,-28.95,28.6
2000/01/01 00:22:40.12,IMU,-60.06,-33.69,-976.56,-1.37,-2.07,-1.32,-15.60,6.75,-30.15,28.6
2000/01/01 00:22:40.22,IMU,-61.52,-56.15,-966.31,-0.69,-0.58,0.95,-16.50,6.90,-30.00,28.9
2000/01/01 00:22:40.32,IMU,-68.85,-47.85,-967.77,-0.44,-0.14,-0.02,-16.20,8.40,-30.00,28.6
2000/01/01 00:22:40.42,IMU,-72.27,-32.23,-966.80,-0.82,1.75,0.28,-16.50,6.15,-29.70,28.7
2000/01/01 00:22:40.52,IMU,-71.78,-32.71,-969.73,-0.44,-0.10,-2.05,-16.35,8.70,-28.05,28.7
2000/01/01 00:22:40.62,IMU,-72.75,-38.57,-981.93,-0.04,-0.92,-0.74,-16.20,8.85,-29.70,28.7
2000/01/01 00:22:40.72,IMU,-65.92,-49.32,-973.63,0.18,-0.58,2.56,-16.95,8.10,-28.20,28.3
2000/01/01 00:22:40.82,IMU,-68.85,-44.43,-987.79,-0.98,-1.56,0.27,-16.20,8.10,-28.95,28.5
2000/01/01 00:22:40.92,IMU,-60.55,-51.76,-972.17,-0.69,1.44,2.22,-16.95,8.40,-28.20,28.8
2000/01/01 00:22:41.02,IMU,-66.41,-36.13,-972.17,1.24,-0.46,1.50,-17.40,8.25,-29.85,28.7
2000/01/01 00:22:41.12,IMU,-65.92,-50.78,-977.54,-1.92,-2.16,-3.34,-15.60,7.50,-28.05,28.7
2000/01/01 00:22:41.22,IMU,-67.87,-56.15,-962.89,-3.20,2.80,-0.05,-16.50,8.40,-28.20,28.6
2000/01/01 00:22:41.32,IMU,-63.96,-44.43,-975.59,-1.97,1.06,2.92,-16.35,7.50,-29.55,28.7
2000/01/01 00:22:41.43,IMU,-76.66,-42.48,-977.05,-1.24,-1.94,-1.35,-16.95,8.40,-29.70,28.7
2000/01/01 00:22:41.53,IMU,-77.15,-43.46,-974.61,-0.62,0.22,0.50,-16.65,8.70,-29.10,28.6
2000/01/01 00:22:41.63,IMU,-56.64,-30.27,-979.00,-1.43,-1.33,-2.56,-17.55,7.35,-28.95,28.8
2000/01/01 00:22:41.73,IMU,-71.78,-53.71,-970.70,-0.92,0.89,1.99,-15.75,9.15,-28.65,28.7
2000/01/01 00:22:41.83,IMU,-76.66,-42.48,-968.26,-1.21,0.05,-0.60,-16.65,8.25,-29.10,28.6
2000/01/01 00:22:41.93,IMU,-65.92,-39.06,-961.43,1.18,-1.56,-0.96,-16.95,6.90,-28.95,28.7
2000/01/01 00:22:42.03,IMU,-73.24,-38.09,-970.70,-0.69,1.37,0.34,-16.35,7.20,-30.15,28.7
2000/01/01 00:22:42.13,IMU,-70.31,-39.55,-966.31,-1.90,0.03,1.15,-16.65,8.70,-29.55,28.5
2000/01/01 00:22:42.23,IMU,-70.80,-33.69,-958.01,0.15,0.08,-0.68,-17.25,6.15,-28.95,28.9
2000/01/01 00:22:42.33,IMU,-70.31,-41.50,-971.68,-3.23,0.16,-0.51,-16.95,7.65,-29.25,28.6
2000/01/01 00:22:42.43,IMU,-67.38,-51.27,-975.10,-0.06,-0.80,1.82,-16.65,7.20,-29.55,28.6
2000/01/01 00:22:42.53,IMU,-70.80,-53.22,-977.05,0.27,-0.87,3.25,-17.25,9.60,-28.95,28.6
2000/01/01 00:22:42.63,IMU,-72.27,-35.16,-972.17,0.11,-1.26,0.53,-17.85,8.25,-29.55,28.7
2000/01/01 00:22:42.73,IMU,-56.15,-37.11,-964.36,-2.59,0.50,0.82,-15.75,8.40,-28.65,28.6
2000/01/01 00:22:42.83,IMU,-66.89,-44.92,-978.52,-2.41,0.76,-2.49,-16.95,8.85,-29.25,28.6
2000/01/01 00:22:42.93,IMU,-63.48,-41.99,-972.17,-1.44,1.95,-0.23,-16.50,6.60,-26.85,28.5
2000/01/01 00:22:43.04,IMU,-63.48,-48.34,-969.24,-1.60,1.78,-2.64,-17.85,7.95,-29.55,28.6
2000/01/01 00:22:43.14,IMU,-65.43,-47.36,-966.31,-0.73,0.77,1.75,-16.35,7.95,-29.10,28.7
2000/01/01 00:22:43.24,IMU,-64.45,-34.18,-978.52,-1.85,-0.66,2.08,-16.50,7.35,-28.95,28.4
2000/01/01 00:22:43.34,IMU,-69.34,-41.99,-968.75,-0.94,-1.04,1.69,-16.95,8.10,-30.30,28.7
2000/01/01 00:22:43.44,IMU,-63.48,-25.88,-967.77,1.11,-0.27,-2.13,-17.25,8.10,-29.25,28.7
2000/01/01 00:22:43.54,IMU,-57.13,-43.95,-962.40,-0.70,-2.23,-0.35,-16.20,8.10,-29.70,28.6
2000/01/01 00:22:43.64,IMU,-66.41,-39.06,-978.52,0.28,-0.66,2.34,-16.65,7.20,-28.80,28.7
2000/01/01 00:22:43.74,IMU,-65.43,-43.95,-978.03,-2.05,-1.44,-1.37,-17.55,8.10,-30.30,28.6
2000/01/01 00:22:43.84,IMU,-64.94,-44.92,-970.21,-1.38,0.15,-1.64,-16.05,8.25,-29.55,28.6
2000/01/01 00:22:43.95,IMU,-86.91,-34.67,-964.84,-0.67,-2.17,3.66,-15.75,7.35,-28.95,28.7
2000/01/01 00:22:44.05,IMU,-63.48,-41.99,-966.80,-2.95,1.11,-0.06,-16.20,8.10,-29.25,28.6
2000/01/01 00:22:44.15,IMU,-57.13,-39.06,-972.17,-1.62,-2.74,-4.74,-17.10,6.45,-28.05,28.2
2000/01/01 00:22:44.25,IMU,-74.71,-42.48,-972.17,-1.54,-0.95,-1.47,-16.20,8.85,-29.25,28.4
2000/01/01 00:22:44.35,IMU,-67.38,-50.78,-966.31,-1.76,0.97,0.48,-17.10,7.95,-29.10,28.6
2000/01/01 00:22:44.45,IMU,-59.08,-43.95,-968.26,-0.05,-2.53,-2.28,-17.25,7.35,-29.70,28.7
2000/01/01 00:22:44.55,IMU,-53.22,-49.80,-960.94,-1.46,-1.63,1.69,-15.75,7.35,-28.65,28.7
2000/01/01 00:22:44.65,IMU,-58.59,-44.43,-964.84,-0.73,1.45,1.61,-15.15,6.15,-28.65,28.3
2000/01/01 00:22:44.75,IMU,-63.48,-61.04,-971.68,-2.44,-1.79,0.18,-15.45,7.35,-28.95,28.6
2000/01/01 00:22:44.85,IMU,-69.82,-47.85,-975.10,-1.21,0.44,-2.24,-15.60,7.20,-29.10,28.7
2000/01/01 00:22:44.95,IMU,-57.62,-52.25,-979.00,1.33,-0.37,0.30,-16.35,7.95,-30.15,28.8
2000/01/01 00:22:45.05,IMU,-74.22,-52.25,-970.21,0.24,1.22,-0.22,-15.60,6.75,-30.15,28.7
2000/01/01 00:22:45.15,IMU,-67.38,-34.18,-986.33,0.66,-1.98,0.82,-17.85,7.50,-29.55,28.6
2000/01/01 00:22:45.25,IMU,-61.52,-41.99,-967.29,0.10,-2.08,-1.19,-17.10,8.70,-28.35,28.6
2000/01/01 00:22:45.36,IMU,-67.38,-41.50,-966.31,-0.37,-1.11,-3.38,-16.65,7.50,-30.15,28.5
2000/01/01 00:22:45.46,IMU,-59.08,-43.95,-970.21,-1.63,-2.34,0.30,-15.60,7.50,-28.35,28.5
2000/01/01 00:22:45.56,IMU,-75.20,-42.97,-978.03,0.47,0.24,-1.52,-17.10,7.50,-28.80,28.6
2000/01/01 00:22:45.66,IMU,-75.20,-41.02,-967.77,-2.01,-2.02,0.54,-16.05,7.50,-29.10,28.6
2000/01/01 00:22:45.76,IMU,-67.38,-47.85,-969.73,-0.52,1.47,0.47,-16.50,7.65,-29.25,28.5
2000/01/01 00:22:45.86,IMU,-62.01,-45.41,-979.98,1.20,-1.55,1.61,-16.50,9.15,-30.30,28.6
2000/01/01 00:22:45.96,IMU,-62.01,-44.43,-968.75,-1.51,-0.24,1.40,-15.30,6.45,-29.55,28.4
2000/01/01 00:22:46.06,IMU,-50.78,-44.43,-974.61,0.78,-2.21,1.50,-16.05,9.30,-28.35,28.8
2000/01/01 00:22:46.16,IMU,-75.68,-41.50,-974.61,-0.70,0.11,1.34,-16.05,7.95,-28.80,28.6
2000/01/01 00:22:46.26,IMU,-55.18,-50.29,-971.68,0.15,0.85,-1.99,-17.40,9.30,-28.80,28.6
2000/01/01 00:22:46.36,IMU,-71.29,-45.90,-963.87,-2.23,-1.85,-1.02,-16.20,5.85,-29.70,28.7
2000/01/01 00:22:46.46,IMU,-67.38,-38.57,-964.36,-0.28,-0.40,1.17,-17.25,7.65,-29.25,28.6
2000/01/01 00:22:46.56,IMU,-59.08,-51.27,-967.77,-1.76,-1.06,-4.07,-16.20,7.35,-28.65,28.8
2000/01/01 00:22:46.66,IMU,-62.99,-58.59,-970.70,0.58,-0.40,0.47,-16.20,7.35,-28.20,28.4
2000/01/01 00:22:46.76,IMU,-74.22,-45.41,-969.73,-1.44,-0.15,-2.10,-16.35,7.50,-28.35,28.5
2000/01/01 00:22:46.87,IMU,-73.24,-35.64,-966.31,-0.28,-2.66,0.73,-16.35,7.20,-29.10,28.6
2000/01/01 00:22:46.97,IMU,-69.34,-36.13,-971.19,-1.50,-1.40,-1.83,-16.35,8.25,-29.10,28.7
2000/01/01 00:22:47.07,IMU,-60.55,-39.06,-961.43,1.62,-2.23,0.18,-17.25,6.90,-29.25,28.6
2000/01/01 00:22:47.17,IMU,-70.31,-29.30,-977.54,-0.44,-2.15,-0.14,-16.35,7.95,-30.15,28.9
2000/01/01 00:22:47.27,IMU,-73.24,-53.22,-963.87,-0.18,0.21,2.34,-17.40,7.20,-28.35,28.4
2000/01/01 00:22:47.37,IMU,-68.36,-47.36,-968.75,-1.02,-2.27,0.29,-17.55,8.10,-29.70,28.7
2000/01/01 00:22:47.47,IMU,-72.27,-63.48,-969.24,1.40,-0.54,-2.77,-16.20,8.10,-30.00,28.6
2000/01/01 00:22:47.57,IMU,-70.31,-34.18,-967.29,0.34,0.31,1.21,-16.50,7.35,-28.95,28.6
2000/01/01 00:22:47.67,IMU,-71.29,-48.34,-974.12,-2.44,0.64,2.89,-16.65,8.70,-27.75,28.7
2000/01/01 00:22:47.77,IMU,-66.89,-43.95,-973.14,0.37,-0.88,0.78,-16.65,7.50,-28.80,28.6
2000/01/01 00:22:47.87,IMU,-65.92,-44.92,-969.73,-2.27,1.66,-2.18,-15.75,7.65,-29.25,28.4
2000/01/01 00:22:47.97,IMU,-61.04,-44.43,-969.24,1.69,-1.56,0.25,-17.55,9.15,-28.65,28.4
2000/01/01 00:22:48.07,IMU,-82.03,-36.13,-972.17,-1.47,-3.60,0.71,-17.40,7.95,-28.80,28.6
2000/01/01 00:22:48.17,IMU,-70.31,-38.09,-970.70,0.92,-0.05,-0.48,-17.10,8.25,-28.80,28.4
2000/01/01 00:22:48.27,IMU,-68.36,-42.97,-979.00,-1.85,0.23,-1.38,-18.90,7.50,-30.15,28.7
2000/01/01 00:22:48.37,IMU,-64.94,-45.41,-970.21,-1.95,3.00,2.67,-16.65,8.70,-28.05,28.6
2000/01/01 00:22:48.48,IMU,-82.03,-36.62,-969.73,-1.76,-1.03,0.77,-17.40,9.75,-28.05,28.3
2000/01/01 00:22:48.58,IMU,-67.38,-34.67,-976.56,-0.18,-1.34,0.29,-15.60,7.20,-29.85,28.4
2000/01/01 00:22:48.68,IMU,-77.15,-38.57,-962.89,0.87,-0.44,0.23,-15.15,7.35,-29.25,28.6
2000/01/01 00:22:48.78,IMU,-63.96,-46.88,-966.31,-0.35,0.89,-1.19,-16.05,7.50,-28.80,28.6
2000/01/01 00:22:48.88,IMU,-72.27,-52.25,-962.89,-0.52,0.05,0.22,-15.30,7.95,-29.10,28.5
2000/01/01 00:22:48.98,IMU,-76.66,-41.99,-975.59,-2.23,-1.63,1.50,-16.65,8.70,-28.35,28.5
2000/01/01 00:22:49.08,IMU,-60.06,-49.80,-968.75,-1.52,-1.86,1.07,-16.20,8.40,-27.90,28.7
2000/01/01 00:22:49.18,IMU,-72.27,-56.15,-980.47,-2.43,-2.17,2.81,-16.35,7.95,-28.80,28.7
2000/01/01 00:22:49.28,IMU,-71.29,-37.11,-969.73,-2.24,-0.13,3.11,-16.50,6.15,-28.95,28.4
2000/01/01 00:22:49.38,IMU,-67.87,-48.83,-973.14,-0.30,-0.97,-0.78,-15.30,7.95,-28.35,28.5
2000/01/01 00:22:49.48,IMU,-69.82,-38.09,-975.59,1.83,0.53,3.13,-17.85,6.00,-29.85,28.7
2000/01/01 00:22:49.58,IMU,-71.29,-46.39,-976.07,0.29,-0.46,4.27,-15.15,7.35,-29.70,28.6
2000/01/01 00:22:49.68,IMU,-68.85,-35.64,-963.87,0.02,-0.39,-0.67,-16.95,8.40,-29.25,28.7
2000/01/01 00:22:49.78,IMU,-75.20,-44.43,-971.68,-0.11,-1.04,1.46,-15.45,8.40,-28.95,28.7
2000/01/01 00:22:49.88,IMU,-69.82,-43.95,-971.68,0.97,-0.13,0.31,-16.65,8.25,-29.55,28.6
2000/01/01 00:22:49.99,IMU,-61.52,-31.74,-962.89,0.16,1.37,-3.79,-16.65,8.25,-28.35,28.4
2000/01/01 00:22:50.09,IMU,-68.85,-53.71,-983.40,0.76,-1.16,-2.23,-20.10,4.80,-25.05,28.6
2000/01/01 00:22:50.19,IMU,-71.29,-45.41,-964.84,-1.88,-2.46,-0.07,-16.05,7.50,-29.85,28.6
2000/01/01 00:22:50.29,IMU,-63.96,-38.09,-964.36,-1.68,1.94,0.45,-17.40,8.25,-28.80,28.7
2000/01/01 00:22:50.39,IMU,-77.64,-37.60,-974.12,-1.51,1.86,0.02,-15.60,8.25,-28.80,28.6
2000/01/01 00:22:50.49,IMU,-65.43,-44.43,-974.61,-1.66,-0.07,5.04,-16.95,8.85,-28.95,28.8
2000/01/01 00:22:50.59,IMU,-56.64,-49.80,-978.52,-0.79,0.37,1.53,-16.50,8.85,-28.20,28.4
2000/01/01 00:22:50.69,IMU,-74.71,-42.97,-967.29,-2.90,0.15,1.58,-17.40,7.50,-28.35,28.6
2000/01/01 00:22:50.79,IMU,-73.24,-42.48,-960.45,-1.26,-2.37,2.64,-18.15,8.25,-29.10,28.6
2000/01/01 00:22:50.89,IMU,-66.41,-37.60,-971.68,-0.43,-0.27,-1.34,-16.20,9.15,-30.30,28.6
2000/01/01 00:22:50.99,IMU,-75.68,-41.02,-969.24,0.10,-1.29,-0.08,-15.30,6.45,-28.35,28.3
2000/01/01 00:22:51.09,IMU,-67.87,-50.29,-967.29,-0.63,-1.40,-0.59,-16.35,5.70,-26.25,28.5
2000/01/01 00:22:51.19,IMU,-63.96,-52.25,-975.10,-0.79,-1.11,-0.60,-17.85,7.95,-27.75,28.4
2000/01/01 00:22:51.29,IMU,-55.18,-51.27,-987.30,-0.98,-0.19,2.27,-17.10,8.70,-29.55,28.7
2000/01/01 00:22:51.39,IMU,-80.57,-43.46,-963.87,-0.43,-0.31,-3.24,-15.75,8.10,-28.95,28.6
2000/01/01 00:22:51.50,IMU,-60.06,-44.43,-965.82,1.31,-3.38,2.30,-17.10,7.95,-30.15,28.7
2000/01/01 00:22:51.60,IMU,-74.71,-47.36,-970.21,-1.20,1.07,1.08,-17.10,7.50,-29.85,28.5
2000/01/01 00:22:51.70,IMU,-58.59,-52.25,-980.47,-0.90,-2.28,-2.16,-16.35,9.00,-29.55,28.7
2000/01/01 00:22:51.80,IMU,-66.89,-40.53,-968.75,-0.37,-2.68,-1.21,-17.10,8.25,-29.10,28.5
2000/01/01 00:22:51.90,IMU,-54.69,-49.80,-966.31,-0.70,-0.73,-0.92,-15.60,8.70,-29.55,28.4
2000/01/01 00:22:52.00,IMU,-57.62,-51.76,-967.77,-2.08,-0.37,1.49,-15.75,7.35,-28.65,28.6
2000/01/01 00:22:52.10,IMU,-64.45,-42.97,-973.14,-2.08,0.24,0.12,-16.20,8.40,-29.25,28.7
2000/01/01 00:22:52.20,IMU,-56.64,-43.95,-965.33,-1.39,-0.69,-1.54,-17.10,6.75,-30.15,28.8
2000/01/01 00:22:52.30,IMU,-61.52,-40.53,-964.36,-0.13,-1.75,0.65,-17.25,7.35,-30.00,28.7
2000/01/01 00:22:52.40,IMU,-66.89,-41.02,-979.49,-0.60,0.78,-1.07,-16.50,7.35,-29.25,28.7
2000/01/01 00:22:52.50,IMU,-63.96,-47.85,-971.68,-1.92,-0.05,0.30,-16.95,8.40,-29.25,28.7
2000/01/01 00:22:52.60,IMU,-77.15,-48.34,-968.75,-1.49,-1.16,1.27,-18.45,7.50,-29.55,28.5
2000/01/01 00:22:52.70,IMU,-59.08,-58.59,-953.61,0.11,-2.73,1.30,-15.30,6.75,-30.60,28.4
2000/01/01 00:22:52.80,IMU,-67.38,-60.06,-974.12,0.01,-0.45,0.20,-17.40,8.25,-28.35,28.6
2000/01/01 00:22:52.90,IMU,-62.50,-49.32,-961.91,-0.92,-2.88,0.97,-16.50,8.40,-29.70,28.7
2000/01/01 00:22:53.00,IMU,-64.94,-38.57,-972.17,-1.50,-0.97,-2.06,-16.65,7.20,-29.55,28.6
2000/01/01 00:22:53.11,IMU,-54.69,-51.27,-974.12,-2.44,0.05,-1.45,-16.20,7.65,-28.95,28.5
2000/01/01 00:22:53.21,IMU,-77.15,-63.48,-975.59,0.34,-0.06,0.56,-15.45,7.35,-29.70,28.3
2000/01/01 00:22:53.31,IMU,-67.38,-40.53,-966.31,-1.09,-2.76,-1.20,-16.35,7.95,-28.80,28.7
2000/01/01 00:22:53.41,IMU,-63.48,-50.29,-976.56,-0.40,-2.79,-0.92,-16.20,6.90,-28.95,28.7
2000/01/01 00:22:53.51,IMU,-65.92,-31.74,-970.21,-1.41,-2.27,-1.11,-17.25,7.35,-29.25,28.4
2000/01/01 00:22:53.61,IMU,-65.43,-51.76,-976.56,0.25,-4.92,0.98,-15.15,6.90,-28.65,28.6
2000/01/01 00:22:53.71,IMU,-65.92,-57.13,-962.40,-1.02,0.99,2.58,-16.50,8.10,-29.25,28.6
2000/01/01 00:22:53.81,IMU,-65.43,-36.13,-964.36,-0.95,-2.80,0.74,-17.40,7.50,-28.05,28.7
2000/01/01 00:22:53.91,IMU,-53.71,-50.78,-973.63,-1.50,-0.87,3.37,-17.25,7.65,-28.20,28.6
2000/01/01 00:22:54.01,IMU,-57.13,-46.39,-957.03,-1.11,0.14,0.53,-15.45,8.85,-28.95,28.6
2000/01/01 00:22:54.11,IMU,-66.89,-35.64,-968.26,-1.08,-0.34,-1.51,-16.05,8.25,-29.85,28.8
2000/01/01 00:22:54.21,IMU,-65.92,-39.55,-970.21,-0.35,-1.21,-0.34,-15.60,7.95,-28.80,28.7
2000/01/01 00:22:54.31,IMU,-70.31,-50.29,-975.10,-1.49,0.82,-0.15,-17.55,8.10,-29.25,28.7
2000/01/01 00:22:54.41,IMU,-79.10,-44.43,-968.26,-1.68,-1.19,-0.66,-16.95,6.60,-28.95,28.7
2000/01/01 00:22:54.51,IMU,-63.48,-41.50,-977.54,-2.15,-1.61,2.06,-16.05,7.50,-29.55,28.7
2000/01/01 00:22:54.62,IMU,-74.71,-44.92,-971.68,0.49,-2.07,0.66,-16.50,8.40,-28.65,28.6
2000/01/01 00:22:54.72,IMU,-64.94,-41.99,-973.14,0.21,-2.48,-1.08,-16.50,6.90,-28.95,28.6
2000/01/01 00:22:54.82,IMU,-76.17,-37.60,-961.91,-0.02,0.05,1.87,-18.00,7.65,-29.25,28.4
2000/01/01 00:22:54.92,IMU,-77.64,-41.02,-972.17,-0.13,-0.47,2.63,-17.40,6.75,-29.55,28.4
2000/01/01 00:22:55.02,IMU,-58.11,-37.60,-968.75,-1.10,-0.98,1.40,-16.95,8.85,-28.65,28.4
2000/01/01 00:22:55.12,IMU,-70.31,-43.95,-980.96,-0.79,-0.05,-0.75,-17.10,6.45,-29.55,28.6
2000/01/01 00:22:55.22,IMU,-72.27,-45.41,-961.43,-1.72,0.05,1.11,-16.05,8.25,-29.55,28.7
2000/01/01 00:22:55.32,IMU,-65.92,-43.95,-975.10,0.44,-0.85,-0.89,-17.25,6.90,-27.90,28.6
2000/01/01 00:22:55.42,IMU,-63.96,-34.67,-972.66,-0.89,-0.85,0.54,-16.95,8.40,-27.90,28.6
2000/01/01 00:22:55.52,IMU,-59.57,-42.97,-974.12,-0.23,1.80,1.69,-17.40,7.20,-29.85,28.8
2000/01/01 00:22:55.62,IMU,-64.94,-50.29,-979.49,-0.53,-0.74,-1.60,-17.10,8.70,-30.15,28.8
2000/01/01 00:22:55.72,IMU,-71.29,-58.11,-972.66,-0.67,0.02,-0.14,-16.65,7.50,-29.10,28.7
2000/01/01 00:22:55.82,IMU,-61.52,-45.41,-964.84,-2.15,-1.49,0.00,-15.15,8.40,-28.65,28.7
2000/01/01 00:22:55.92,IMU,-71.78,-57.13,-964.36,0.15,0.76,0.27,-17.40,7.20,-28.05,28.4
2000/01/01 00:22:56.02,IMU,-76.17,-47.36,-972.66,-0.92,0.37,-0.76,-16.65,8.25,-29.85,28.4
2000/01/01 00:22:56.13,IMU,-62.99,-39.06,-964.84,-2.43,0.13,-1.26,-15.75,7.35,-28.95,28.6
2000/01/01 00:22:56.23,IMU,-64.45,-40.04,-981.45,-2.48,-1.31,-2.05,-19.35,6.90,-25.05,28.6
2000/01/01 00:22:56.33,IMU,-68.36,-42.97,-960.94,0.31,0.24,1.56,-17.25,8.40,-27.90,28.4
2000/01/01 00:22:56.43,IMU,-63.96,-48.83,-963.87,0.23,-2.10,-0.71,-15.60,7.50,-29.85,28.7
2000/01/01 00:22:56.53,IMU,-55.66,-51.76,-964.36,-1.85,-2.19,-0.77,-15.45,8.10,-28.95,28.7
2000/01/01 00:22:56.63,IMU,-65.43,-46.39,-969.73,-0.41,-2.06,-0.14,-16.50,8.40,-28.65,28.6
2000/01/01 00:22:56.73,IMU,-67.87,-42.48,-969.73,-0.21,-1.03,1.58,-16.20,7.35,-29.25,28.7
2000/01/01 00:22:56.83,IMU,-60.55,-37.11,-967.77,-2.00,-1.25,0.92,-16.20,6.15,-28.20,28.6
2000/01/01 00:22:56.93,IMU,-69.34,-50.78,-963.87,-0.37,-0.79,0.02,-16.50,6.90,-27.60,28.4
2000/01/01 00:22:57.03,IMU,-74.22,-37.11,-960.94,-0.55,0.24,0.19,-17.55,6.90,-27.60,28.6
2000/01/01 00:22:57.13,IMU,-63.48,-48.34,-970.70,0.94,0.28,-0.89,-16.20,6.60,-28.95,28.7
2000/01/01 00:22:57.23,IMU,-76.17,-50.29,-969.24,0.27,-0.73,1.02,-20.25,6.00,-24.15,28.7
2000/01/01 00:22:57.33,IMU,-71.29,-49.80,-965.82,-2.56,-2.12,-4.13,-17.10,8.25,-29.10,28.6
2000/01/01 00:22:57.43,IMU,-64.94,-34.67,-978.03,0.84,-1.35,-1.50,-16.65,8.25,-29.10,28.6
2000/01/01 00:22:57.53,IMU,-71.29,-37.60,-970.70,-1.42,0.83,-1.76,-16.35,7.95,-29.85,28.7
2000/01/01 00:22:57.64,IMU,-68.36,-53.22,-975.59,-2.43,-1.09,-0.15,-19.05,5.55,-29.25,28.5
2000/01/01 00:22:57.74,IMU,-66.41,-44.92,-967.77,-1.21,-0.95,-2.98,-16.05,7.95,-28.80,28.4
2000/01/01 00:22:57.84,IMU,-73.24,-40.04,-967.77,-1.11,-1.46,-0.57,-18.15,6.45,-28.05,28.6
2000/01/01 00:22:57.94,IMU,-80.08,-36.13,-975.10,-1.21,0.52,0.50,-17.25,8.10,-30.00,28.7
2000/01/01 00:22:58.04,IMU,-80.08,-39.55,-962.89,0.20,-0.96,0.76,-17.40,7.50,-29.55,28.6
2000/01/01 00:22:58.14,IMU,-60.06,-50.78,-965.33,-1.67,-0.53,0.72,-16.35,7.50,-29.85,28.5
2000/01/01 00:22:58.24,IMU,-70.31,-32.71,-974.61,0.64,-0.02,0.76,-20.70,6.45,-23.40,28.5
2000/01/01 00:22:58.34,IMU,-64.45,-55.66,-971.68,-1.09,0.66,-0.99,-16.35,8.70,-29.55,28.5
2000/01/01 00:22:58.44,IMU,-61.04,-52.73,-967.77,-0.21,-0.22,-0.66,-15.60,7.50,-28.35,28.7
2000/01/01 00:22:58.54,IMU,-69.82,-43.46,-958.98,-0.79,-0.31,1.20,-16.95,6.90,-28.65,28.4
2000/01/01 00:22:58.64,IMU,-61.52,-47.85,-972.66,0.96,-1.44,0.90,-17.85,8.70,-29.55,28.7
2000/01/01 00:22:58.74,IMU,-63.96,-39.06,-976.07,-0.43,-2.59,3.37,-15.30,7.20,-28.80,28.4
2000/01/01 00:22:58.84,IMU,-71.29,-47.85,-967.29,0.42,-1.50,1.18,-18.45,8.70,-28.80,28.6
2000/01/01 00:22:58.94,IMU,-59.08,-42.48,-972.66,0.02,0.28,1.89,-16.95,7.65,-28.65,28.7
2000/01/01 00:22:59.04,IMU,-56.64,-43.95,-972.17,0.13,-0.95,1.69,-17.85,7.50,-28.35,28.4
2000/01/01 00:22:59.14,IMU,-56.15,-55.18,-977.54,-0.50,-1.86,-1.20,-16.35,9.00,-30.15,28.7
2000/01/01 00:22:59.25,IMU,-76.66,-41.02,-967.29,-1.54,-1.92,2.18,-16.35,7.50,-28.80,28.7
2000/01/01 00:22:59.35,IMU,-70.31,-44.43,-972.17,-0.84,-1.59,-1.08,-17.10,8.25,-28.80,28.9
2000/01/01 00:22:59.45,IMU,-65.92,-49.32,-970.21,-2.26,1.45,-1.89,-17.25,8.10,-28.95,28.7
2000/01/01 00:22:59.55,IMU,-68.36,-48.83,-979.00,-0.37,-2.05,-1.49,-16.95,8.10,-27.90,28.4
2000/01/01 00:22:59.65,IMU,-52.73,-40.04,-960.94,0.47,-0.23,2.79,-18.15,8.25,-28.80,28.7
2000/01/01 00:22:59.75,IMU,-54.69,-41.99,-973.63,-0.18,-1.73,-1.58,-17.10,6.75,-30.60,28.5
2000/01/01 00:22:59.85,IMU,-62.01,-42.48,-977.05,1.29,-1.95,1.41,-16.20,6.15,-28.95,28.4
2000/01/01 00:22:59.95,IMU,-71.29,-51.27,-960.94,0.62,-0.88,0.55,-15.30,6.75,-28.35,28.7
2000/01/01 00:23:00.05,IMU,-69.82,-42.48,-968.26,-0.79,-1.11,-0.75,-18.15,6.00,-29.55,28.5
2000/01/01 00:23:00.15,IMU,-75.20,-42.97,-966.31,-1.71,1.08,0.18,-16.05,7.50,-28.80,28.7
2000/01/01 00:23:00.25,IMU,-62.99,-46.88,-972.66,-0.48,-1.35,0.01,-17.85,7.20,-29.55,28.4
2000/01/01 00:23:00.35,IMU,-63.48,-42.48,-961.91,-0.66,1.24,-0.34,-16.35,7.95,-28.80,28.4
2000/01/01 00:23:00.45,IMU,-73.24,-37.11,-972.66,-1.06,0.47,-0.54,-17.25,7.35,-29.25,28.7
2000/01/01 00:23:00.55,IMU,-61.52,-48.34,-965.82,0.28,-1.15,1.37,-16.65,6.75,-29.55,28.7
2000/01/01 00:23:00.65,IMU,-62.01,-45.90,-960.45,0.60,-1.35,0.22,-16.65,7.95,-29.55,28.6
2000/01/01 00:23:00.76,IMU,-62.01,-43.46,-956.54,-1.72,-1.11,-3.26,-17.10,8.25,-28.35,28.5
2000/01/01 00:23:00.86,IMU,-71.29,-49.32,-961.91,-0.15,-3.71,-0.76,-16.20,7.35,-30.00,28.6
2000/01/01 00:23:00.96,IMU,-62.50,-42.97,-971.68,-0.53,-3.26,-1.31,-16.95,6.90,-28.65,28.6
2000/01/01 00:23:01.06,IMU,-64.45,-42.97,-960.94,0.77,-1.31,0.60,-16.65,6.75,-29.55,28.7
2000/01/01 00:23:01.16,IMU,-72.75,-54.20,-966.31,-0.90,-0.53,2.68,-17.25,7.65,-28.95,28.6
2000/01/01 00:23:01.26,IMU,-68.36,-42.48,-973.14,-2.15,-1.27,0.85,-16.95,8.40,-28.65,28.6
2000/01/01 00:23:01.36,IMU,-62.01,-43.95,-969.24,-1.42,0.18,-2.58,-16.50,6.90,-30.75,28.7
2000/01/01 00:23:01.46,IMU,-72.27,-52.73,-975.10,0.18,-2.29,1.75,-17.25,7.65,-28.65,28.6
2000/01/01 00:23:01.56,IMU,-62.50,-33.69,-959.96,-1.79,-0.56,-2.95,-16.05,8.25,-28.80,28.4
2000/01/01 00:23:01.66,IMU,-76.66,-44.92,-972.17,0.40,0.48,-1.64,-16.65,7.95,-29.10,28.7
2000/01/01 00:23:01.76,IMU,-65.92,-53.22,-979.98,0.28,-0.65,1.12,-16.05,7.20,-27.30,28.7
2000/01/01 00:23:01.86,IMU,-73.24,-39.06,-974.61,0.04,-0.20,-4.37,-16.50,7.35,-28.65,28.7
2000/01/01 00:23:01.96,IMU,-61.04,-58.59,-971.68,-1.56,2.45,2.00,-16.65,7.95,-28.80,28.4
2000/01/01 00:23:02.06,IMU,-66.41,-53.71,-970.21,-0.11,-0.22,2.70,-17.25,8.40,-28.95,28.6
2000/01/01 00:23:02.16,IMU,-79.10,-47.36,-980.47,-0.29,-0.69,-1.85,-16.65,9.00,-29.85,28.6
2000/01/01 00:23:02.27,IMU,-56.64,-47.85,-978.03,0.35,0.06,0.61,-15.45,9.15,-28.20,28.6
2000/01/01 00:23:02.37,IMU,-60.06,-44.92,-964.36,-1.04,0.57,1.86,-16.35,9.00,-28.80,28.5
2000/01/01 00:23:02.47,IMU,-71.78,-45.90,-969.24,-0.37,-1.12,-2.34,-16.35,8.25,-29.55,28.6
2000/01/01 00:23:02.57,IMU,-58.59,-47.85,-980.96,-0.45,0.43,1.76,-16.35,7.50,-28.80,28.6
2000/01/01 00:23:02.67,IMU,-61.04,-40.04,-984.86,-1.76,-2.26,0.85,-17.25,8.10,-29.70,28.6
2000/01/01 00:23:02.77,IMU,-76.66,-46.39,-971.68,0.66,-0.13,1.64,-16.95,8.85,-27.90,28.7
2000/01/01 00:23:02.87,IMU,-60.06,-49.80,-968.75,0.89,-0.71,1.40,-15.75,6.90,-28.65,28.6
2000/01/01 00:23:02.97,IMU,-75.20,-52.25,-970.70,-0.33,1.76,-1.34,-16.95,7.65,-28.65,28.6
2000/01/01 00:23:03.07,IMU,-69.34,-33.20,-975.10,-0.83,-0.56,-0.94,-15.75,6.90,-29.25,28.6
2000/01/01 00:23:03.17,IMU,-65.92,-47.36,-966.80,-0.72,-0.90,0.04,-16.35,8.70,-29.10,28.5
2000/01/01 00:23:03.27,IMU,-66.41,-46.39,-979.98,-0.63,2.94,-0.17,-16.35,8.70,-29.10,28.4
2000/01/01 00:23:03.37,IMU,-63.96,-49.80,-970.70,-0.62,1.27,3.84,-17.40,8.70,-29.85,28.5
2000/01/01 00:23:03.47,IMU,-69.34,-48.34,-953.61,-0.95,-1.81,-0.05,-16.95,7.65,-28.65,28.6
2000/01/01 00:23:03.57,IMU,-70.80,-41.02,-969.24,-1.82,-0.14,2.89,-16.20,8.10,-28.95,28.6
2000/01/01 00:23:03.67,IMU,-66.41,-56.15,-962.40,-1.51,-0.18,1.07,-17.85,7.20,-28.05,28.3
2000/01/01 00:23:03.77,IMU,-58.11,-37.11,-981.93,-1.07,-1.22,1.82,-16.65,8.25,-28.35,28.7
2000/01/01 00:23:03.88,IMU,-72.27,-44.92,-978.03,-1.05,-3.05,2.22,-17.25,8.10,-28.20,28.6
2000/01/01 00:23:03.98,IMU,-62.50,-42.97,-978.03,-2.95,-0.33,0.27,-16.65,7.95,-29.85,28.7
2000/01/01 00:23:04.08,IMU,-74.71,-42.97,-969.73,-0.69,1.43,-0.02,-18.00,6.15,-29.25,28.7
2000/01/01 00:23:04.18,IMU,-61.52,-46.39,-970.70,0.91,-1.60,0.86,-16.35,8.25,-28.35,28.7
2000/01/01 00:23:04.28,IMU,-66.41,-52.25,-966.80,1.66,0.72,-1.34,-15.75,8.10,-29.25,28.6
2000/01/01 00:23:04.38,IMU,-62.01,-36.62,-968.75,-2.56,-1.94,-0.22,-16.50,8.10,-28.65,28.6
2000/01/01 00:23:04.48,IMU,-77.15,-44.43,-968.26,-1.15,1.07,-0.97,-18.00,8.10,-29.25,28.5
2000/01/01 00:23:04.58,IMU,-60.06,-50.78,-959.47,-1.21,1.98,-0.56,-16.20,8.10,-30.00,28.7
2000/01/01 00:23:04.68,IMU,-58.59,-40.53,-970.21,-0.40,-1.38,-2.64,-16.20,8.10,-28.95,28.7
2000/01/01 00:23:04.78,IMU,-72.27,-35.64,-971.19,-0.53,-0.59,-2.59,-16.05,6.00,-28.80,28.6
2000/01/01 00:23:04.88,IMU,-53.71,-46.88,-973.63,-1.80,-1.02,1.02,-16.95,8.40,-28.65,28.6
2000/01/01 00:23:04.98,IMU,-74.71,-45.41,-977.54,-1.13,0.62,4.20,-16.95,8.40,-28.65,28.6
2000/01/01 00:23:05.08,IMU,-59.08,-53.71,-979.98,-0.53,-1.52,-1.15,-16.95,8.85,-30.00,28.6
2000/01/01 00:23:05.18,IMU,-64.45,-52.25,-965.33,-1.69,-0.06,-1.91,-15.75,7.35,-29.25,28.6
2000/01/01 00:23:05.28,IMU,-76.66,-41.02,-977.54,-0.92,0.66,2.05,-16.65,6.45,-29.55,28.6
2000/01/01 00:23:05.39,IMU,-72.75,-51.27,-973.63,-0.56,-1.53,-2.85,-17.55,5.85,-27.60,28.5
2000/01/01 00:23:05.49,IMU,-65.43,-50.78,-970.21,0.58,-0.80,3.24,-16.35,8.70,-29.85,28.4
2000/01/01 00:23:05.59,IMU,-64.45,-44.92,-962.89,-0.61,-0.40,-0.30,-17.85,7.95,-30.15,28.9
2000/01/01 00:23:05.69,IMU,-64.45,-47.85,-963.87,0.14,0.28,5.06,-16.95,6.60,-28.95,28.6
2000/01/01 00:23:05.79,IMU,-62.01,-49.32,-986.33,-0.52,0.43,-0.16,-16.65,7.95,-29.10,28.4
2000/01/01 00:23:05.89,IMU,-53.22,-38.09,-982.91,-1.82,-0.47,0.64,-16.05,7.95,-29.85,28.6
2000/01/01 00:23:05.99,IMU,-77.15,-51.76,-967.77,-0.88,-0.92,3.18,-15.60,6.45,-30.60,28.6
2000/01/01 00:23:06.09,IMU,-62.50,-58.11,-960.45,0.25,0.08,0.91,-16.95,7.35,-27.90,28.7
2000/01/01 00:23:06.19,IMU,-54.20,-41.99,-979.00,-1.03,-0.93,-1.39,-16.95,8.40,-28.95,28.5
2000/01/01 00:23:06.29,IMU,-62.01,-43.46,-969.24,0.12,0.35,0.40,-16.50,8.85,-30.00,28.7
2000/01/01 00:23:06.39,IMU,-57.13,-44.43,-966.80,-0.38,-2.89,0.05,-21.45,6.00,-23.85,28.6
2000/01/01 00:23:06.49,IMU,-79.10,-60.06,-966.31,-2.21,1.25,0.68,-17.25,8.85,-30.30,28.6
2000/01/01 00:23:06.59,IMU,-70.80,-49.32,-978.52,-2.62,0.85,0.33,-17.55,7.65,-27.90,28.5
2000/01/01 00:23:06.69,IMU,-66.41,-41.50,-974.12,-1.41,0.35,1.37,-16.65,6.00,-28.80,28.6
2000/01/01 00:23:06.79,IMU,-66.41,-43.95,-981.93,-1.27,-1.24,-1.37,-16.20,7.65,-27.90,28.7
2000/01/01 00:23:06.89,IMU,-62.99,-37.11,-962.89,-0.27,0.24,3.15,-15.30,7.95,-29.55,28.6
2000/01/01 00:23:07.00,IMU,-78.61,-41.50,-974.12,-1.51,-0.09,-0.33,-16.20,6.90,-29.70,28.5
2000/01/01 00:23:07.10,IMU,-69.82,-45.41,-959.47,-0.56,0.18,-1.72,-16.35,7.50,-28.80,28.6
2000/01/01 00:23:07.20,IMU,-71.78,-53.22,-961.91,-0.69,0.49,2.05,-15.75,8.85,-28.20,28.6
2000/01/01 00:23:07.30,IMU,-74.22,-52.25,-978.03,-2.83,-1.58,2.21,-16.65,8.70,-28.35,28.7
2000/01/01 00:23:07.40,IMU,-66.89,-48.34,-960.45,-0.59,0.35,1.13,-17.40,7.50,-28.80,28.6
2000/01/01 00:23:07.50,IMU,-69.34,-49.32,-962.89,-1.66,-0.41,3.38,-18.45,8.25,-29.55,28.7
2000/01/01 00:23:07.60,IMU,-68.36,-35.64,-970.70,0.07,1.50,-0.95,-16.20,8.10,-28.65,28.4
2000/01/01 00:23:07.70,IMU,-60.06,-57.13,-971.68,-1.34,-1.11,1.60,-16.65,7.20,-29.10,28.6
2000/01/01 00:23:07.80,IMU,-65.43,-43.46,-981.45,-1.73,0.24,2.69,-15.60,7.50,-28.35,28.7
2000/01/01 00:23:07.90,IMU,-67.38,-51.76,-975.10,-0.63,-0.79,-1.56,-16.20,7.35,-29.25,28.4
2000/01/01 00:23:08.00,IMU,-70.31,-51.76,-970.70,-0.87,0.89,0.21,-15.60,8.70,-28.80,28.4
2000/01/01 00:23:08.10,IMU,-58.59,-29.79,-971.68,-1.04,0.44,1.02,-15.45,7.65,-28.95,28.5
2000/01/01 00:23:08.20,IMU,-57.13,-43.95,-971.19,-1.11,1.01,0.51,-16.50,7.65,-28.95,28.6
2000/01/01 00:23:08.30,IMU,-55.66,-38.57,-975.10,-0.75,-2.20,-0.06,-16.65,7.95,-28.35,28.7
2000/01/01 00:23:08.40,IMU,-59.57,-38.09,-958.01,-3.30,-0.92,0.34,-16.35,7.95,-29.10,28.6
2000/01/01 00:23:08.51,IMU,-67.87,-41.02,-974.12,0.25,-2.12,-1.54,-16.20,6.90,-27.60,28.6
2000/01/01 00:23:08.61,IMU,-78.61,-48.34,-974.61,-0.31,-0.85,0.76,-17.25,8.85,-29.70,28.7
2000/01/01 00:23:08.71,IMU,-72.75,-47.85,-966.80,0.13,-0.58,0.57,-18.30,7.65,-28.95,28.6
2000/01/01 00:23:08.81,IMU,-71.78,-46.39,-962.40,-2.02,-2.79,-0.01,-15.75,7.65,-29.70,28.3
2000/01/01 00:23:08.91,IMU,-55.66,-39.55,-967.29,-0.35,-0.06,0.90,-17.25,8.40,-29.25,28.6
2000/01/01 00:23:09.01,IMU,-69.82,-38.09,-971.19,-0.34,-0.61,2.40,-16.35,7.50,-29.55,28.7
2000/01/01 00:23:09.11,IMU,-67.38,-32.71,-961.43,-2.32,-2.24,-0.45,-17.10,8.70,-28.35,28.6
2000/01/01 00:23:09.21,IMU,-56.64,-49.80,-964.84,-1.69,2.27,0.01,-16.95,8.40,-30.75,28.5
2000/01/01 00:23:09.31,IMU,-77.64,-42.97,-962.89,-0.06,-0.27,0.32,-16.20,9.15,-28.65,28.6
2000/01/01 00:23:09.41,IMU,-68.36,-54.69,-966.31,-1.95,-0.24,-1.51,-16.20,8.10,-28.20,28.6
2000/01/01 00:23:09.51,IMU,-65.92,-49.80,-974.61,-1.69,-0.44,1.11,-17.55,8.85,-27.90,28.7
2000/01/01 00:23:09.61,IMU,-64.94,-51.76,-970.70,-1.01,-1.34,-1.94,-16.50,7.65,-28.20,28.7
2000/01/01 00:23:09.71,IMU,-72.27,-45.41,-972.66,-0.81,-1.51,-1.38,-16.35,8.70,-30.15,28.5
2000/01/01 00:23:09.81,IMU,-66.41,-56.15,-971.68,1.17,-0.64,-0.05,-15.60,8.25,-29.10,28.8
2000/01/01 00:23:09.91,IMU,-70.31,-41.50,-973.63,-0.11,0.37,1.01,-14.55,8.25,-28.05,28.7
2000/01/01 00:23:10.02,IMU,-61.52,-34.67,-971.68,0.27,-2.26,-3.46,-17.10,7.95,-28.80,28.4
2000/01/01 00:23:10.12,IMU,-56.64,-44.92,-973.14,-0.35,0.01,0.31,-17.40,7.20,-29.85,28.9
2000/01/01 00:23:10.22,IMU,-62.99,-62.99,-973.63,0.55,-0.05,1.55,-15.75,8.10,-28.95,28.7
2000/01/01 00:23:10.32,IMU,-69.34,-41.99,-983.89,-1.36,2.40,-1.83,-17.55,7.65,-28.95,28.6
2000/01/01 00:23:10.42,IMU,-65.92,-34.18,-975.10,-0.55,2.44,-0.40,-16.20,8.85,-28.95,28.6
2000/01/01 00:23:10.52,IMU,-66.41,-51.27,-970.21,-0.53,-1.33,-0.85,-16.05,6.75,-28.80,28.4
2000/01/01 00:23:10.62,IMU,-69.34,-25.39,-978.52,-1.22,-1.66,-1.34,-16.95,10.35,-30.00,28.6
2000/01/01 00:23:10.72,IMU,-48.34,-40.04,-971.19,-2.02,-2.06,-1.82,-16.20,8.85,-28.95,28.6
2000/01/01 00:23:10.82,IMU,-73.24,-39.55,-975.10,-1.18,-0.24,0.18,-16.20,7.65,-29.25,28.6
2000/01/01 00:23:10.92,IMU,-58.59,-47.85,-974.61,-2.69,-1.59,0.18,-16.95,8.85,-28.65,28.7
2000/01/01 00:23:11.02,IMU,-68.36,-49.32,-965.82,-0.89,0.18,1.95,-16.50,8.10,-27.60,28.7
2000/01/01 00:23:11.91,IMU,-65.43,-30.27,-1013.67,-0.07,2.52,1.76,-15.45,7.65,-30.00,28.6
2000/01/01 00:23:12.01,IMU,-52.25,-45.41,-957.52,0.60,-2.66,1.51,-15.15,8.40,-29.25,28.3
2000/01/01 00:23:12.11,IMU,-76.17,-41.50,-971.68,0.25,0.16,-1.02,-16.20,7.35,-29.70,28.7
2000/01/01 00:23:12.21,IMU,-70.80,-41.02,-968.26,0.16,-2.27,-1.53,-16.20,5.85,-28.95,28.6
2000/01/01 00:23:12.31,IMU,-58.59,-37.11,-977.05,-0.81,0.27,1.58,-16.65,6.45,-28.80,28.6
2000/01/01 00:23:12.41,IMU,-63.96,-43.95,-969.24,-2.13,-2.28,-0.24,-16.05,7.95,-29.10,28.6
2000/01/01 00:23:12.51,IMU,-65.92,-30.76,-976.07,0.64,-0.15,0.00,-16.65,7.95,-29.55,28.6
2000/01/01 00:23:12.61,IMU,-57.62,-46.39,-965.82,-1.40,-1.76,0.21,-17.40,6.75,-28.35,28.7
2000/01/01 00:23:12.71,IMU,-61.04,-39.55,-964.84,-1.63,-0.46,-3.92,-17.85,8.70,-28.35,28.6
2000/01/01 00:23:12.81,IMU,-73.73,-44.43,-960.94,-1.27,-0.94,3.14,-17.25,7.65,-28.95,28.5
2000/01/01 00:23:12.91,IMU,-69.82,-40.04,-972.17,0.24,-1.52,-0.40,-18.00,8.10,-29.25,28.5
2000/01/01 00:23:13.02,IMU,-69.82,-39.55,-974.12,-0.61,0.53,0.29,-17.25,8.40,-28.65,28.6
2000/01/01 00:23:13.12,IMU,-65.43,-39.06,-967.77,-0.02,-2.86,1.53,-16.50,7.35,-28.65,28.6
2000/01/01 00:23:13.22,IMU,-62.50,-41.50,-979.98,-0.84,-0.64,2.13,-16.35,8.25,-28.35,28.7
2000/01/01 00:23:13.32,IMU,-73.24,-43.95,-971.68,0.62,0.84,-1.19,-16.95,8.85,-28.65,28.5
2000/01/01 00:23:13.42,IMU,-59.57,-38.09,-973.14,-0.13,-2.40,0.22,-16.20,8.40,-28.95,28.6
2000/01/01 00:23:13.53,IMU,-63.96,-50.78,-969.73,0.84,1.49,0.63,-16.95,8.40,-29.25,28.6
2000/01/01 00:23:13.63,IMU,-71.78,-43.95,-974.61,-0.22,-1.85,0.15,-18.15,9.00,-28.80,28.6
2000/01/01 00:23:13.73,IMU,-73.73,-50.78,-970.21,-1.34,-0.64,2.82,-16.20,9.15,-28.95,28.6
2000/01/01 00:23:13.83,IMU,-63.48,-45.41,-973.14,-1.63,-1.61,0.05,-17.55,7.35,-29.25,28.6
2000/01/01 00:23:13.94,IMU,-62.99,-45.90,-976.07,0.27,0.31,1.87,-17.85,8.25,-28.35,28.5
2000/01/01 00:23:14.04,IMU,-57.62,-50.29,-971.19,-1.51,-0.31,0.92,-16.65,7.95,-29.55,28.8
2000/01/01 00:23:14.14,IMU,-50.78,-50.29,-975.59,-0.36,0.76,2.07,-16.65,7.50,-30.15,28.6
2000/01/01 00:23:14.24,IMU,-73.24,-53.71,-976.07,-0.87,-1.02,0.14,-15.75,8.40,-28.95,28.4
2000/01/01 00:23:14.34,IMU,-67.87,-37.60,-971.68,-0.14,-0.66,-5.08,-16.65,7.95,-29.85,28.6
2000/01/01 00:23:14.44,IMU,-66.41,-47.85,-970.21,-2.28,0.66,0.50,-16.50,7.35,-29.70,28.6
2000/01/01 00:23:14.54,IMU,-62.99,-37.11,-964.36,-0.95,-1.66,1.06,-16.65,7.20,-28.80,28.6
2000/01/01 00:23:14.64,IMU,-63.48,-41.50,-976.56,0.18,1.20,0.19,-16.20,7.65,-28.95,28.4
2000/01/01 00:23:14.74,IMU,-63.48,-36.62,-971.68,-0.73,-2.20,1.14,-16.65,8.70,-29.10,28.6
2000/01/01 00:23:14.84,IMU,-63.96,-36.62,-966.80,-1.63,-2.91,0.54,-17.10,5.70,-29.10,28.6
2000/01/01 00:23:14.94,IMU,-60.55,-42.48,-971.68,-0.90,0.13,0.13,-16.65,7.95,-28.35,28.7
2000/01/01 00:23:15.04,IMU,-67.87,-58.59,-968.26,-1.05,-2.69,0.60,-15.60,7.95,-29.10,28.7
2000/01/01 00:23:15.14,IMU,-70.31,-47.36,-970.21,-0.37,-0.40,-0.27,-17.10,7.50,-28.80,28.7
2000/01/01 00:23:15.24,IMU,-54.20,-44.43,-976.56,-1.28,0.36,-3.44,-16.50,8.40,-29.25,28.6
2000/01/01 00:23:15.34,IMU,-60.55,-51.76,-979.49,-1.16,1.42,-0.89,-16.65,7.20,-29.55,28.6
2000/01/01 00:23:15.45,IMU,-71.29,-43.46,-976.56,-1.21,-1.44,-2.13,-16.65,7.95,-28.80,28.5
2000/01/01 00:23:15.55,IMU,-73.73,-44.92,-969.24,-2.69,-0.45,1.62,-16.20,7.65,-28.95,28.3
2000/01/01 00:23:15.65,IMU,-63.48,-32.71,-979.49,-2.65,-1.37,2.02,-16.95,8.10,-29.25,28.4
2000/01/01 00:23:15.75,IMU,-74.22,-49.80,-974.12,0.21,-0.85,-1.62,-18.00,8.40,-29.70,28.4
2000/01/01 00:23:15.85,IMU,-58.59,-35.64,-972.66,-0.90,-0.18,1.15,-15.30,8.25,-31.20,28.5
2000/01/01 00:23:15.95,IMU,-68.36,-41.50,-974.61,-1.82,0.73,2.69,-15.45,8.10,-28.65,28.4
2000/01/01 00:23:16.05,IMU,-62.01,-50.78,-973.63,-2.37,-1.34,2.00,-16.65,8.25,-30.15,28.4
2000/01/01 00:23:16.15,IMU,-68.36,-47.36,-969.24,0.87,-0.80,-0.43,-16.50,7.35,-27.90,28.6
2000/01/01 00:23:16.25,IMU,-74.71,-31.74,-971.19,0.02,0.75,-0.87,-17.25,8.40,-28.65,28.4
2000/01/01 00:23:16.35,IMU,-87.89,-45.90,-975.59,-0.66,-0.25,0.65,-18.15,8.70,-29.85,28.4
2000/01/01 00:23:16.45,IMU,-79.59,-32.23,-973.63,0.08,-1.05,2.60,-17.85,9.30,-28.05,28.6
2000/01/01 00:23:16.55,IMU,-62.50,-39.55,-970.70,0.35,0.60,-0.15,-16.35,9.00,-29.10,28.7
2000/01/01 00:23:16.65,IMU,-60.55,-46.88,-969.73,-1.47,1.53,-1.17,-16.95,6.90,-28.95,28.8
2000/01/01 00:23:16.75,IMU,-66.41,-48.34,-966.31,-1.83,1.09,0.43,-16.95,8.40,-28.95,28.4
2000/01/01 00:23:16.85,IMU,-61.52,-37.11,-964.84,-1.46,0.70,-1.22,-17.40,7.95,-29.55,28.5
2000/01/01 00:23:16.96,IMU,-62.99,-51.27,-973.63,-0.82,-1.98,2.07,-16.50,8.10,-30.30,28.8
2000/01/01 00:23:17.06,IMU,-68.85,-35.64,-969.24,-0.01,-0.24,2.59,-17.40,9.30,-27.75,28.7
2000/01/01 00:23:17.16,IMU,-60.55,-48.34,-981.45,0.23,-1.85,1.00,-17.10,7.50,-28.80,28.5
2000/01/01 00:23:17.26,IMU,-71.29,-35.64,-971.68,-0.90,-0.31,0.65,-16.50,7.65,-29.70,28.6
2000/01/01 00:23:17.36,IMU,-74.71,-58.11,-962.40,0.44,-0.74,-2.01,-15.75,8.10,-29.25,28.5
2000/01/01 00:23:17.46,IMU,-62.50,-46.88,-968.75,-1.07,-0.86,-0.67,-16.95,8.10,-29.70,28.7
2000/01/01 00:23:17.56,IMU,-64.45,-57.13,-969.73,0.52,0.10,-0.41,-14.70,8.10,-28.20,28.6
2000/01/01 00:23:17.66,IMU,-69.34,-39.06,-971.19,-0.28,-1.60,2.89,-17.40,9.00,-28.35,28.5
2000/01/01 00:23:17.76,IMU,-69.34,-45.41,-966.80,-0.49,1.31,0.21,-17.40,8.25,-29.85,28.6
2000/01/01 00:23:17.86,IMU,-57.62,-40.53,-963.87,-1.86,-4.47,-0.37,-15.60,7.50,-30.60,28.6
2000/01/01 00:23:17.96,IMU,-68.36,-53.22,-972.66,-1.32,0.25,-1.98,-18.00,8.40,-29.25,28.8
2000/01/01 00:23:18.06,IMU,-66.41,-57.62,-970.21,-0.25,-2.94,0.30,-19.05,7.35,-27.15,28.8
2000/01/01 00:23:18.16,IMU,-66.89,-31.74,-975.10,0.56,-0.01,-3.53,-16.50,8.40,-28.95,28.5
2000/01/01 00:23:18.26,IMU,-67.38,-37.60,-971.19,-1.80,-1.16,0.53,-15.60,9.30,-29.10,28.6
2000/01/01 00:23:18.36,IMU,-70.31,-51.27,-966.31,-1.13,0.55,-0.37,-16.65,8.25,-28.35,28.7
2000/01/01 00:23:18.46,IMU,-67.87,-47.36,-968.26,-1.15,-1.74,2.13,-17.10,8.70,-29.10,28.6
2000/01/01 00:23:18.57,IMU,-65.92,-40.53,-968.26,0.37,0.10,0.88,-17.40,9.30,-29.10,28.7
2000/01/01 00:23:18.67,IMU,-68.36,-31.74,-958.98,-2.42,0.33,3.23,-16.05,7.50,-28.35,28.6
2000/01/01 00:23:18.77,IMU,-65.92,-39.06,-972.66,-1.67,-0.93,2.02,-16.50,8.10,-30.00,28.6
2000/01/01 00:23:18.87,IMU,-57.13,-48.83,-984.38,-1.76,-1.55,-0.40,-15.30,8.70,-28.80,28.6
2000/01/01 00:23:18.97,IMU,-60.06,-52.73,-974.12,-0.30,-1.11,0.69,-15.30,7.50,-27.30,28.5
2000/01/01 00:23:19.07,IMU,-66.41,-35.64,-972.17,0.34,-3.25,-0.41,-19.05,3.60,-24.00,28.7
2000/01/01 00:23:19.17,IMU,-60.06,-42.48,-976.07,-1.76,1.20,0.85,-16.95,7.65,-29.70,28.7
2000/01/01 00:23:19.27,IMU,-62.50,-46.39,-965.82,-1.94,-2.24,0.74,-16.20,7.65,-28.95,28.7
2000/01/01 00:23:19.37,IMU,-58.11,-43.46,-970.70,0.11,0.77,-2.95,-16.95,8.85,-29.70,28.7
2000/01/01 00:23:19.47,IMU,-64.94,-36.62,-962.40,-2.34,-2.82,-2.85,-16.35,6.45,-29.55,28.6
2000/01/01 00:23:19.57,IMU,-77.15,-46.88,-971.19,0.67,-0.67,-0.71,-15.60,7.95,-29.10,28.7
2000/01/01 00:23:19.67,IMU,-57.13,-45.41,-957.52,-0.17,-1.33,0.34,-17.55,8.40,-28.95,28.6
2000/01/01 00:23:19.77,IMU,-68.36,-57.13,-976.07,-0.72,1.83,0.17,-17.55,7.65,-27.15,28.4
2000/01/01 00:23:19.87,IMU,-71.78,-42.48,-978.03,-1.14,0.42,0.69,-16.50,8.10,-28.20,28.7
2000/01/01 00:23:19.97,IMU,-72.75,-34.18,-977.54,1.20,0.92,1.02,-16.05,6.45,-28.35,28.7
2000/01/01 00:23:20.08,IMU,-70.80,-37.11,-968.75,-1.53,-3.60,0.05,-21.60,4.35,-24.30,28.6
2000/01/01 00:23:20.19,IMU,-71.29,-30.76,-976.07,-0.76,-1.25,1.60,-16.05,7.20,-30.15,28.6
2000/01/01 00:23:20.29,IMU,-65.92,-38.09,-973.14,1.86,1.85,2.43,-16.65,7.95,-29.55,28.5
2000/01/01 00:23:20.39,IMU,-56.64,-42.48,-979.49,-1.85,0.14,-1.15,-17.55,7.35,-28.95,28.5
2000/01/01 00:23:20.49,IMU,-62.50,-43.46,-968.75,-0.31,-3.79,-2.98,-16.20,8.85,-30.00,28.6
2000/01/01 00:23:20.59,IMU,-65.92,-54.69,-971.19,0.38,-0.57,-1.39,-17.10,7.50,-29.10,28.7
2000/01/01 00:23:20.69,IMU,-62.99,-31.25,-966.31,-0.91,0.88,0.24,-17.40,7.50,-28.35,28.6
2000/01/01 00:23:20.79,IMU,-56.15,-27.34,-975.59,-1.92,-1.27,2.85,-16.35,7.95,-28.35,28.9
2000/01/01 00:23:20.89,IMU,-71.78,-48.34,-977.05,-0.99,0.22,0.03,-15.75,8.10,-28.95,28.6
2000/01/01 00:23:20.99,IMU,-69.34,-45.90,-958.98,0.24,-1.98,-0.76,-18.15,7.50,-28.80,28.8
2000/01/01 00:23:21.09,IMU,-59.57,-29.79,-974.61,-0.87,1.39,2.89,-15.60,7.95,-29.55,28.7
2000/01/01 00:23:21.19,IMU,-64.94,-44.43,-962.40,-1.22,-2.28,0.27,-16.65,7.50,-29.85,28.6
2000/01/01 00:23:21.29,IMU,-72.75,-37.60,-966.80,-1.26,0.93,1.54,-16.95,8.10,-28.65,28.6
2000/01/01 00:23:21.39,IMU,-73.24,-41.50,-955.57,0.99,1.49,1.11,-17.10,8.25,-28.35,28.5
2000/01/01 00:23:21.49,IMU,-62.99,-49.32,-972.66,0.37,-0.53,0.91,-16.95,7.35,-30.00,28.6
2000/01/01 00:23:21.59,IMU,-63.48,-35.64,-970.70,-0.43,-1.02,0.53,-16.20,8.10,-28.65,28.4
2000/01/01 00:23:21.70,IMU,-52.73,-35.16,-964.84,-1.41,0.85,0.98,-16.65,7.50,-29.10,28.6
2000/01/01 00:23:21.80,IMU,-67.38,-37.60,-967.29,-1.09,-0.16,-1.34,-16.50,8.10,-28.65,28.7
2000/01/01 00:23:21.90,IMU,-66.41,-40.04,-973.63,-2.50,-1.79,2.15,-17.40,8.25,-28.35,28.6
2000/01/01 00:23:22.00,IMU,-63.48,-41.02,-973.63,-0.27,0.77,-3.76,-16.20,8.40,-29.25,28.5
2000/01/01 00:23:22.10,IMU,-63.48,-41.02,-971.68,0.21,-2.72,-0.15,-16.05,8.25,-29.10,28.6
2000/01/01 00:23:22.20,IMU,-66.89,-37.11,-966.31,1.53,1.94,1.10,-17.10,6.75,-27.75,28.4
2000/01/01 00:23:22.30,IMU,-67.87,-44.43,-969.24,-0.54,-2.03,1.10,-16.50,7.65,-28.65,28.7
2000/01/01 00:23:22.40,IMU,-58.11,-33.20,-972.17,0.81,1.00,-0.47,-16.65,9.75,-28.80,28.6
2000/01/01 00:23:22.50,IMU,-72.27,-43.95,-961.91,0.49,-0.95,1.06,-16.35,8.25,-29.85,28.7
2000/01/01 00:23:22.60,IMU,-72.27,-41.02,-975.10,-0.01,-1.85,-0.15,-16.65,8.25,-29.55,28.8
2000/01/01 00:23:22.70,IMU,-59.57,-35.64,-979.98,-0.66,-2.34,-1.97,-17.40,7.95,-28.80,28.7
2000/01/01 00:23:22.80,IMU,-59.08,-41.02,-972.17,-1.26,-0.51,3.28,-17.55,7.35,-30.00,28.8
2000/01/01 00:23:22.90,IMU,-68.36,-35.16,-964.84,-0.86,-0.45,0.09,-16.05,7.50,-29.85,28.3
2000/01/01 00:23:23.00,IMU,-65.92,-38.57,-963.38,-2.09,-1.46,0.89,-17.10,6.75,-28.05,28.7
2000/01/01 00:23:23.10,IMU,-70.31,-54.20,-966.80,1.23,-0.93,0.05,-17.10,6.00,-28.35,28.6
2000/01/01 00:23:23.21,IMU,-58.11,-32.23,-960.94,-1.92,0.35,3.91,-16.65,8.25,-28.80,28.6
2000/01/01 00:23:23.31,IMU,-70.31,-37.60,-971.19,0.60,-1.00,1.11,-16.20,8.40,-28.20,28.7
2000/01/01 00:23:23.41,IMU,-63.96,-44.43,-965.33,-1.15,-0.12,3.40,-16.20,6.90,-28.65,28.4
2000/01/01 00:23:23.51,IMU,-66.89,-29.79,-968.75,-0.28,0.69,-2.02,-16.05,7.50,-28.05,28.7
2000/01/01 00:23:23.61,IMU,-65.92,-41.02,-976.07,-0.78,-2.59,0.60,-17.55,8.10,-27.90,28.7
2000/01/01 00:23:23.71,IMU,-56.64,-46.88,-967.77,-1.04,-0.15,-0.05,-16.65,7.50,-29.55,28.6
2000/01/01 00:23:23.81,IMU,-62.50,-44.43,-970.70,0.85,-0.94,-1.03,-16.95,8.40,-29.25,28.5
2000/01/01 00:23:23.91,IMU,-55.18,-38.57,-969.24,-0.82,-2.30,1.95,-17.10,7.50,-29.10,28.9
2000/01/01 00:23:24.01,IMU,-62.01,-48.34,-962.40,0.40,-0.56,1.24,-16.20,7.65,-29.25,28.7
2000/01/01 00:23:24.11,IMU,-56.15,-45.41,-971.68,-1.08,-0.44,-5.30,-16.20,6.90,-30.30,28.6
2000/01/01 00:23:24.21,IMU,-66.89,-43.46,-968.75,-2.46,-0.56,1.36,-16.95,8.40,-28.95,28.7
2000/01/01 00:23:24.31,IMU,-57.62,-37.60,-965.82,-0.57,1.56,0.19,-16.95,8.10,-29.70,28.5
2000/01/01 00:23:24.41,IMU,-57.62,-38.57,-958.98,-2.27,-0.42,0.24,-18.00,6.90,-28.95,28.4
2000/01/01 00:23:24.51,IMU,-59.57,-37.11,-976.56,1.66,-1.02,-0.53,-16.20,7.35,-28.20,28.8
2000/01/01 00:23:24.61,IMU,-59.08,-43.46,-967.29,-0.47,1.33,3.27,-16.20,7.65,-30.30,28.6
2000/01/01 00:23:24.72,IMU,-56.15,-50.29,-966.80,0.50,-0.15,1.98,-16.20,8.40,-29.70,28.4
2000/01/01 00:23:24.82,IMU,-66.89,-32.23,-971.68,-1.71,0.26,0.44,-16.50,8.10,-28.65,28.7
2000/01/01 00:23:24.92,IMU,-62.50,-44.92,-976.56,-2.44,-2.57,-0.19,-16.65,7.50,-28.80,28.6
2000/01/01 00:23:25.02,IMU,-67.38,-35.64,-976.56,-1.40,-1.49,1.21,-16.35,8.70,-29.10,28.6
2000/01/01 00:23:25.12,IMU,-73.24,-38.57,-966.31,-1.13,1.63,-4.79,-16.50,9.90,-28.65,28.6
2000/01/01 00:23:25.22,IMU,-72.27,-33.20,-971.19,-0.99,-1.64,-0.70,-15.60,7.50,-28.80,28.6
2000/01/01 00:23:25.32,IMU,-62.99,-41.99,-979.49,0.14,-2.79,-0.75,-16.05,7.50,-29.10,28.6
2000/01/01 00:23:25.42,IMU,-58.11,-51.27,-972.17,-2.39,-2.16,-0.94,-16.65,7.20,-31.65,28.8
2000/01/01 00:23:25.52,IMU,-62.01,-41.50,-967.29,-0.61,-0.31,-0.37,-16.50,7.65,-29.70,28.6
2000/01/01 00:23:25.62,IMU,-72.27,-38.09,-968.26,-0.84,-1.03,1.02,-16.95,6.90,-29.25,28.7
2000/01/01 00:23:25.72,IMU,-62.50,-46.88,-965.82,-2.24,0.31,1.26,-17.55,7.65,-28.95,28.4
2000/01/01 00:23:25.82,IMU,-62.50,-39.06,-967.77,-1.18,-3.47,-1.05,-16.35,7.95,-28.80,28.6
2000/01/01 00:23:25.92,IMU,-61.52,-48.83,-965.82,-1.14,-1.95,0.10,-18.15,8.70,-29.55,28.9
2000/01/01 00:23:26.02,IMU,-69.34,-44.43,-971.68,0.05,-0.94,0.52,-17.25,7.35,-29.25,28.6
2000/01/01 00:23:26.12,IMU,-62.01,-41.02,-972.17,-0.30,-0.99,0.63,-16.65,7.95,-29.85,28.7
2000/01/01 00:23:26.23,IMU,-57.13,-45.41,-984.86,-0.34,-1.37,-3.49,-17.40,7.20,-28.80,28.6
2000/01/01 00:23:26.33,IMU,-67.38,-53.22,-958.50,-0.48,-1.11,-1.92,-16.05,7.95,-28.80,28.7
2000/01/01 00:23:26.43,IMU,-70.31,-37.11,-972.66,0.20,-0.81,-0.77,-16.20,7.65,-30.30,28.6
2000/01/01 00:23:26.53,IMU,-66.41,-40.04,-978.03,-0.47,-1.70,0.47,-17.25,8.40,-28.65,28.7
2000/01/01 00:23:26.63,IMU,-67.87,-54.69,-968.75,-1.34,0.71,0.96,-15.60,8.25,-30.15,28.4
2000/01/01 00:23:26.73,IMU,-69.34,-29.79,-971.68,0.61,-0.25,-2.15,-16.35,8.70,-29.10,28.6
2000/01/01 00:23:26.83,IMU,-73.73,-48.83,-966.31,0.01,-0.20,-1.88,-16.20,8.85,-28.65,28.5
2000/01/01 00:23:26.93,IMU,-63.96,-39.55,-974.12,1.36,-1.19,0.12,-15.60,7.95,-29.55,28.6
2000/01/01 00:23:27.03,IMU,-57.13,-41.50,-972.66,-0.74,-1.79,2.02,-17.10,7.95,-28.35,28.6
2000/01/01 00:23:27.13,IMU,-50.78,-44.43,-963.87,-1.53,0.65,-0.37,-17.55,8.40,-30.00,28.6
2000/01/01 00:23:27.23,IMU,-66.41,-42.48,-970.70,-0.50,1.88,0.63,-19.65,5.70,-23.85,28.4
2000/01/01 00:23:27.39,IMU,-69.82,-47.36,-966.31,-1.02,-2.79,-0.53,-17.55,6.90,-28.95,28.7
2000/01/01 00:23:27.49,IMU,-89.36,-38.09,-976.56,-1.10,0.03,0.14,-16.65,9.00,-29.10,28.7
2000/01/01 00:23:27.59,IMU,-64.94,-56.15,-970.21,-0.40,0.87,-0.79,-17.85,7.95,-29.85,28.6
2000/01/01 00:23:27.69,IMU,-64.45,-41.99,-971.68,0.87,-0.96,0.80,-16.65,7.50,-28.80,28.7
2000/01/01 00:23:27.79,IMU,-67.38,-41.50,-969.73,-0.79,-1.90,-0.37,-17.25,8.40,-29.70,28.8
2000/01/01 00:23:27.89,IMU,-65.43,-33.20,-976.56,-1.15,-0.53,-1.82,-15.75,7.35,-29.25,28.7
2000/01/01 00:23:27.99,IMU,-62.99,-45.90,-961.43,-0.90,0.49,0.50,-16.95,7.65,-28.95,28.6
2000/01/01 00:23:28.09,IMU,-58.11,-43.46,-962.89,-0.79,0.11,-1.79,-17.40,7.95,-28.35,28.7
2000/01/01 00:23:28.19,IMU,-69.82,-44.92,-967.77,-1.54,0.08,0.47,-16.65,7.95,-29.10,28.7
2000/01/01 00:23:28.29,IMU,-75.68,-39.55,-971.68,-1.43,-2.55,-0.11,-16.35,6.75,-29.10,28.7
2000/01/01 00:23:28.39,IMU,-56.64,-56.15,-966.80,-0.40,0.96,0.02,-16.95,8.85,-28.65,28.6
2000/01/01 00:23:28.50,IMU,-63.48,-37.60,-963.87,-0.73,-0.69,-2.11,-16.20,7.35,-29.25,28.7
2000/01/01 00:23:28.60,IMU,-71.78,-43.46,-953.61,-0.26,-0.50,2.68,-17.25,7.35,-29.70,28.6
2000/01/01 00:23:28.70,IMU,-73.24,-39.06,-961.91,-0.18,-0.12,2.53,-17.10,8.70,-28.35,28.4
2000/01/01 00:23:28.80,IMU,-60.55,-44.43,-976.07,-0.15,-0.04,-1.81,-16.05,8.70,-30.60,28.5
2000/01/01 00:23:28.90,IMU,-66.89,-51.76,-972.66,-0.77,-2.46,-1.48,-17.10,9.00,-29.10,28.6
2000/01/01 00:23:29.00,IMU,-63.48,-55.66,-974.12,0.20,0.76,-1.16,-15.75,7.35,-30.00,28.5
2000/01/01 00:23:29.10,IMU,-75.20,-36.13,-974.61,-2.64,-0.34,1.04,-16.35,8.25,-29.85,28.6
2000/01/01 00:23:29.20,IMU,-57.13,-38.57,-962.89,0.59,1.40,1.05,-17.10,8.25,-28.05,28.7
2000/01/01 00:23:29.30,IMU,-55.66,-28.32,-960.45,-0.50,-2.19,0.67,-16.05,7.95,-28.05,28.6
2000/01/01 00:23:29.40,IMU,-69.34,-36.62,-978.03,0.26,1.27,2.44,-17.85,7.20,-29.55,28.6
2000/01/01 00:23:29.50,IMU,-61.52,-43.46,-967.29,-0.09,-1.69,-0.18,-17.25,7.65,-28.95,28.4
2000/01/01 00:23:29.60,IMU,-71.29,-39.06,-958.50,-1.30,0.52,0.95,-16.65,9.00,-28.80,28.7
2000/01/01 00:23:29.70,IMU,-66.41,-45.90,-982.91,-0.43,-0.11,1.61,-16.95,6.60,-30.00,28.6
2000/01/01 00:23:29.80,IMU,-69.34,-46.88,-979.00,-0.50,-2.41,0.57,-16.50,8.85,-28.95,28.6
2000/01/01 00:23:29.90,IMU,-55.18,-39.55,-963.87,0.60,-2.21,0.56,-16.95,6.90,-29.70,28.6
2000/01/01 00:23:30.00,IMU,-62.50,-42.48,-976.07,-0.85,-0.79,-0.94,-16.95,7.35,-30.00,28.6
2000/01/01 00:23:30.11,IMU,-71.78,-53.71,-969.24,1.27,1.08,3.58,-16.50,8.10,-29.70,28.9
2000/01/01 00:23:30.21,IMU,-62.01,-39.06,-971.68,-1.79,-2.08,1.66,-17.25,7.65,-28.20,28.7
2000/01/01 00:23:30.31,IMU,-60.55,-44.43,-971.68,-0.60,1.37,2.66,-17.10,8.25,-27.75,28.5
2000/01/01 00:23:30.41,IMU,-60.55,-52.25,-975.59,-0.21,-2.36,-0.96,-15.15,7.35,-30.30,28.3
2000/01/01 00:23:30.51,IMU,-56.15,-50.78,-973.63,1.03,1.57,1.59,-16.95,8.25,-29.10,28.7
2000/01/01 00:23:30.61,IMU,-52.73,-29.30,-978.03,-0.56,0.83,-0.24,-15.45,7.35,-29.55,28.6
2000/01/01 00:23:30.71,IMU,-68.85,-44.92,-978.03,-1.26,1.02,-0.93,-16.65,7.50,-27.75,28.4
2000/01/01 00:23:30.81,IMU,-66.89,-50.78,-968.75,-1.37,-1.11,-3.49,-17.55,8.85,-29.70,28.8
2000/01/01 00:23:30.91,IMU,-70.80,-45.41,-958.01,1.68,-1.35,-1.50,-16.65,7.95,-29.10,28.6
2000/01/01 00:23:31.01,IMU,-61.04,-46.88,-962.89,-0.92,-0.34,-2.26,-16.95,8.85,-28.65,28.7
2000/01/01 00:23:31.11,IMU,-66.89,-46.39,-969.24,0.17,-0.73,1.60,-16.05,7.95,-29.85,28.6
2000/01/01 00:23:31.21,IMU,-75.20,-44.43,-964.36,-1.71,0.03,0.73,-16.95,6.90,-28.20,28.8
2000/01/01 00:23:31.31,IMU,-62.99,-60.06,-966.31,0.97,1.63,-0.37,-16.65,6.75,-30.60,28.4
2000/01/01 00:23:31.41,IMU,-60.06,-49.32,-980.47,-1.95,0.62,-0.74,-16.05,9.75,-29.55,28.7
2000/01/01 00:23:31.51,IMU,-53.71,-42.97,-970.21,-1.33,2.02,-1.06,-15.75,7.65,-30.75,28.5
2000/01/01 00:23:31.62,IMU,-65.43,-40.53,-964.84,-1.41,-1.00,-0.77,-16.95,8.10,-29.70,28.4
2000/01/01 00:23:31.72,IMU,-71.78,-42.97,-966.31,-1.15,0.28,0.20,-16.65,7.20,-28.35,28.7
2000/01/01 00:23:31.82,IMU,-58.59,-40.04,-969.73,-2.83,0.91,2.66,-15.75,7.65,-29.70,28.7
2000/01/01 00:23:31.92,IMU,-62.01,-46.88,-967.29,-2.32,-0.39,2.26,-16.65,8.25,-28.80,28.6
2000/01/01 00:23:32.02,IMU,-52.73,-40.04,-968.75,-1.15,-1.56,-1.52,-18.00,7.65,-29.70,28.7
2000/01/01 00:23:32.12,IMU,-48.83,-56.15,-976.07,1.40,0.18,-1.44,-16.65,7.20,-28.35,28.6
2000/01/01 00:23:32.22,IMU,-73.73,-34.18,-963.38,-1.56,-1.89,-0.77,-16.05,8.70,-27.30,28.7
2000/01/01 00:23:32.32,IMU,-64.45,-48.83,-976.56,0.38,-1.70,-0.47,-20.85,3.60,-23.70,28.6
2000/01/01 00:23:32.42,IMU,-69.34,-43.46,-962.40,-0.79,-0.11,2.21,-16.65,8.25,-28.35,28.8
2000/01/01 00:23:32.52,IMU,-63.48,-45.41,-973.14,-0.90,1.92,0.88,-16.20,7.35,-28.20,28.6
2000/01/01 00:23:32.62,IMU,-60.06,-50.29,-970.21,-0.76,-0.51,-0.37,-16.05,7.50,-29.10,28.8
2000/01/01 00:23:32.72,IMU,-64.45,-49.32,-968.75,0.21,-0.75,1.25,-16.05,6.45,-28.80,28.9
2000/01/01 00:23:32.82,IMU,-64.94,-43.95,-962.89,0.44,-0.22,0.82,-17.40,7.95,-29.10,28.4
2000/01/01 00:23:32.92,IMU,-60.55,-42.48,-983.40,-0.53,-2.71,-0.39,-17.10,8.25,-28.35,28.7
2000/01/01 00:23:33.02,IMU,-76.17,-38.09,-976.07,-0.47,-0.07,4.81,-16.50,8.10,-28.65,28.6
2000/01/01 00:23:33.12,IMU,-74.22,-44.92,-968.26,0.04,-0.24,2.49,-15.45,8.10,-29.70,28.7
2000/01/01 00:23:33.23,IMU,-62.99,-46.88,-968.26,-0.51,-0.69,3.46,-17.40,9.75,-28.80,28.7
2000/01/01 00:23:33.33,IMU,-69.34,-51.76,-969.73,1.17,-1.89,1.31,-19.95,3.75,-24.90,28.8
2000/01/01 00:23:33.43,IMU,-54.69,-52.73,-978.52,-0.36,-0.85,0.63,-15.75,6.90,-29.25,28.6
2000/01/01 00:23:33.53,IMU,-51.27,-37.11,-964.36,-2.29,0.08,-0.22,-16.20,8.10,-28.20,28.6
2000/01/01 00:23:33.63,IMU,-71.29,-46.39,-963.87,-2.35,1.67,-0.12,-17.10,7.50,-29.10,28.6
2000/01/01 00:23:33.73,IMU,-76.17,-46.88,-982.42,-0.70,0.02,-1.43,-16.50,8.10,-29.70,28.6
2000/01/01 00:23:33.83,IMU,-61.52,-51.27,-967.29,0.55,-2.25,-1.51,-17.40,8.25,-30.15,28.7
2000/01/01 00:23:33.93,IMU,-61.52,-42.97,-959.47,-1.76,-1.19,-1.50,-15.75,9.15,-29.70,28.7
2000/01/01 00:23:34.03,IMU,-64.45,-42.48,-978.03,-3.09,-0.84,-1.50,-17.55,8.85,-29.70,28.3
2000/01/01 00:23:34.13,IMU,-59.08,-42.48,-981.45,0.12,-0.47,2.61,-17.40,6.00,-29.55,28.9
2000/01/01 00:23:34.23,IMU,-68.85,-57.62,-973.63,-0.18,-0.40,1.16,-17.55,9.15,-27.15,28.6
2000/01/01 00:23:34.34,IMU,-69.82,-27.83,-967.29,0.81,0.60,-1.89,-16.65,7.95,-29.10,28.4
2000/01/01 00:23:34.44,IMU,-77.15,-53.71,-966.31,-0.63,0.02,2.00,-15.60,7.95,-29.55,28.6
2000/01/01 00:23:34.54,IMU,-64.94,-43.46,-963.87,-0.72,-2.23,1.42,-17.10,9.00,-29.10,28.6
2000/01/01 00:23:34.64,IMU,-67.87,-37.60,-956.05,-0.65,0.83,2.95,-17.55,6.45,-28.80,28.7
2000/01/01 00:23:34.75,IMU,-64.94,-52.25,-973.14,1.75,-0.36,2.02,-17.25,8.10,-31.05,28.6
2000/01/01 00:23:34.85,IMU,-76.17,-45.90,-971.19,-1.85,1.40,0.65,-16.35,7.20,-29.10,28.7
2000/01/01 00:23:34.95,IMU,-57.62,-31.74,-969.73,-1.23,-0.22,3.24,-15.45,8.40,-28.65,28.6
2000/01/01 00:23:35.05,IMU,-74.71,-50.78,-975.10,-0.23,-0.48,-4.24,-17.40,8.25,-29.55,28.5
2000/01/01 00:23:35.15,IMU,-68.85,-41.50,-969.24,-0.92,-4.47,1.85,-17.10,8.70,-29.85,28.7
2000/01/01 00:23:35.25,IMU,-78.61,-41.99,-970.70,0.57,1.86,-2.77,-16.20,8.10,-28.95,28.7
2000/01/01 00:23:35.35,IMU,-59.08,-46.39,-974.61,-1.33,0.41,-0.67,-17.85,7.50,-29.55,28.7
2000/01/01 00:23:35.45,IMU,-63.96,-48.83,-964.36,-2.11,-0.77,-1.02,-16.05,7.20,-30.60,28.4
2000/01/01 00:23:35.55,IMU,-70.80,-40.53,-970.70,0.08,-1.26,1.25,-18.15,7.20,-29.10,28.6
2000/01/01 00:23:35.65,IMU,-70.80,-43.46,-966.31,1.41,-0.97,-1.23,-17.85,8.25,-29.10,28.7
2000/01/01 00:23:35.75,IMU,-74.71,-47.36,-972.17,0.56,-2.02,-1.33,-16.65,8.25,-30.15,28.6
2000/01/01 00:23:35.85,IMU,-66.41,-47.85,-975.59,-1.34,-2.12,-0.56,-17.10,8.70,-29.85,28.3
2000/01/01 00:23:35.95,IMU,-61.04,-41.99,-972.66,-1.07,1.98,3.38,-16.05,6.75,-29.10,28.7
2000/01/01 00:23:36.05,IMU,-52.73,-44.92,-979.98,0.45,-2.80,-1.73,-17.10,7.95,-28.35,28.6
2000/01/01 00:23:36.15,IMU,-66.41,-58.11,-967.29,-1.42,-1.14,1.30,-16.35,7.50,-29.55,28.8
2000/01/01 00:23:36.26,IMU,-59.08,-35.64,-975.59,1.08,-0.45,-3.49,-16.20,7.65,-29.70,28.4
2000/01/01 00:23:36.36,IMU,-60.06,-57.13,-977.05,-0.38,-1.85,2.92,-16.65,7.95,-29.10,28.5
2000/01/01 00:23:36.46,IMU,-60.55,-37.11,-968.75,-1.79,-1.32,2.66,-16.95,7.65,-29.25,28.7
2000/01/01 00:23:36.56,IMU,-72.27,-46.39,-975.59,-1.31,-0.54,0.48,-16.95,7.65,-29.25,28.8
2000/01/01 00:23:36.66,IMU,-72.75,-41.50,-978.03,-0.74,1.25,1.32,-15.30,8.70,-29.10,28.6
2000/01/01 00:23:36.76,IMU,-67.38,-40.53,-968.26,-0.24,0.54,0.00,-16.05,7.20,-28.80,28.7
2000/01/01 00:23:36.86,IMU,-57.13,-49.32,-972.17,0.21,1.03,2.57,-15.15,7.35,-28.95,28.6
2000/01/01 00:23:36.96,IMU,-56.64,-43.46,-972.66,-1.31,-0.39,-0.02,-15.45,6.90,-28.65,28.6
2000/01/01 00:23:37.06,IMU,-67.87,-36.62,-970.21,-0.71,1.26,-0.63,-16.95,6.90,-30.00,28.4
